"Time (s)","Acceleration x (m/s^2)","Acceleration y (m/s^2)","Acceleration z (m/s^2)","Absolute acceleration (m/s^2)"
1.642287499E-2,-1.404828644E0,3.538042603E0,9.181007996E0,9.938923322E0
2.640387500E-2,-1.296603699E0,3.361709290E0,9.217232666E0,9.896446257E0
3.638387499E-2,-1.137484589E0,3.215912476E0,9.500593414E0,1.009441625E1
4.636487500E-2,-1.000369720E0,3.139122162E0,9.450747070E0,1.000856871E1
5.634587500E-2,-9.249266052E-1,3.095113678E0,9.576186218E0,1.010636237E1
6.632687499E-2,-7.584727478E-1,3.043022003E0,9.529483337E0,1.003226378E1
7.630787500E-2,-8.198451233E-1,3.045417023E0,9.386081543E0,9.901779517E0
8.628787499E-2,-1.007255402E0,3.164718933E0,9.481882324E0,1.004669606E1
9.626887500E-2,-1.142124939E0,3.285218353E0,9.386829987E0,1.001047882E1
1.062498750E-1,-1.142723694E0,3.366499329E0,9.249266052E0,9.908988731E0
1.162308750E-1,-1.100810852E0,3.372187500E0,9.179810486E0,9.841359338E0
1.262118750E-1,-1.037342834E0,3.353775787E0,9.138646088E0,9.789726477E0
1.361928750E-1,-1.002764740E0,3.289858704E0,9.126072235E0,9.752635636E0
1.461728750E-1,-1.014739838E0,3.264411621E0,9.118138733E0,9.737891667E0
1.561538750E-1,-1.018931122E0,3.280578003E0,9.132059784E0,9.756788845E0
1.661348750E-1,-1.031954041E0,3.273243256E0,9.098379822E0,9.724174306E0
1.761158750E-1,-1.100960541E0,3.317251740E0,9.141190796E0,9.786605253E0
1.860968750E-1,-1.100361786E0,3.354524231E0,9.137298889E0,9.795604109E0
1.960768750E-1,-1.014141083E0,3.322490845E0,9.090296631E0,9.731439790E0
2.060578750E-1,-9.267228699E-1,3.281176758E0,9.101972351E0,9.719610942E0
2.160388750E-1,-9.261241150E-1,3.228935394E0,9.127269745E0,9.725779283E0
2.260198750E-1,-9.930349731E-1,3.212918701E0,9.125323792E0,9.725250605E0
2.360008750E-1,-1.051563263E0,3.209775238E0,9.177864532E0,9.779654378E0
2.459818750E-1,-1.057999878E0,3.214714966E0,9.170080719E0,9.774668099E0
2.559618750E-1,-1.098415833E0,3.232078857E0,9.168733521E0,9.783584489E0
2.659428750E-1,-1.112336884E0,3.226390686E0,9.192384338E0,9.805448487E0
2.759238750E-1,-1.110091553E0,3.178490295E0,9.211095428E0,9.807108789E0
2.859048750E-1,-1.096469879E0,3.197650452E0,9.222471771E0,9.822484420E0
2.958858750E-1,-1.063089294E0,3.195704498E0,9.204209747E0,9.801028679E0
3.058658750E-1,-1.011296997E0,3.124602356E0,9.177714844E0,9.747631058E0
3.158468750E-1,-1.044527893E0,3.130290527E0,9.185348969E0,9.760143082E0
3.258278750E-1,-1.115180969E0,3.181633759E0,9.176517334E0,9.776241218E0
3.358088750E-1,-1.171912994E0,3.244353333E0,9.166937256E0,9.794485554E0
3.457898750E-1,-1.166673889E0,3.258573761E0,9.174571381E0,9.805722357E0
3.557708750E-1,-1.116977234E0,3.223247223E0,9.134604492E0,9.750792790E0
3.657508750E-1,-1.068478088E0,3.168760529E0,9.125623169E0,9.719037346E0
3.757318750E-1,-1.047821045E0,3.174897766E0,9.143585815E0,9.735659522E0
3.857128750E-1,-1.119072876E0,3.232677612E0,9.150022430E0,9.768594532E0
3.956938750E-1,-1.082548828E0,3.204386444E0,9.169631653E0,9.773543324E0
4.056748750E-1,-1.030606842E0,3.158581696E0,9.136700134E0,9.722040842E0
4.156558750E-1,-1.050964508E0,3.182831268E0,9.104666748E0,9.702056373E0
4.256358750E-1,-1.065783691E0,3.249891815E0,9.067543945E0,9.691132281E0
4.356168750E-1,-1.056952057E0,3.261717224E0,9.075627136E0,9.701698553E0
4.455978750E-1,-1.025667114E0,3.221600647E0,9.080267487E0,9.689270426E0
4.555788750E-1,-1.056502991E0,3.201242981E0,9.070837097E0,9.676995445E0
4.655598750E-1,-1.092278595E0,3.208727417E0,9.095386047E0,9.706443814E0
4.755398750E-1,-1.081351318E0,3.193459167E0,9.090895386E0,9.695972413E0
4.855208750E-1,-1.095871124E0,3.174897766E0,9.119485931E0,9.718329743E0
4.955018750E-1,-1.130000153E0,3.201692047E0,9.122928772E0,9.734246847E0
5.054828750E-1,-1.146016846E0,3.229683838E0,9.120234375E0,9.742837747E0
5.154638750E-1,-1.141825562E0,3.211870880E0,9.135352936E0,9.750618105E0
5.254448750E-1,-1.136287079E0,3.228785706E0,9.184899902E0,9.801968765E0
5.354248750E-1,-1.131497040E0,3.248694305E0,9.210796051E0,9.832246139E0
5.454058750E-1,-1.128203888E0,3.227288818E0,9.225615234E0,9.838709955E0
5.553868750E-1,-1.154848480E0,3.234324188E0,9.244775391E0,9.862068748E0
5.653678750E-1,-1.165626068E0,3.247796173E0,9.221723328E0,9.846169064E0
5.753488750E-1,-1.140628052E0,3.253783722E0,9.209897919E0,9.834142593E0
5.853298750E-1,-1.111738129E0,3.229534149E0,9.223369904E0,9.835466683E0
5.953098750E-1,-1.083446960E0,3.227139130E0,9.254355469E0,9.860597316E0
6.052908750E-1,-1.057251434E0,3.211122437E0,9.294022980E0,9.889790243E0
6.152718750E-1,-1.061293030E0,3.233725433E0,9.258247375E0,9.863998557E0
6.252528750E-1,-1.057401123E0,3.256777496E0,9.243577881E0,9.857404772E0
6.352338750E-1,-1.047521667E0,3.255430298E0,9.206754456E0,9.821377483E0
6.452138750E-1,-1.032552795E0,3.263663177E0,9.149573364E0,9.768948529E0
6.551948750E-1,-1.031954041E0,3.255280609E0,9.124575348E0,9.742671926E0
6.651758750E-1,-1.045276337E0,3.245550842E0,9.132508850E0,9.748277837E0
6.751568750E-1,-1.027762756E0,3.244503021E0,9.138945465E0,9.752098254E0
6.851378750E-1,-1.034199371E0,3.247496796E0,9.138197021E0,9.753073802E0
6.951188750E-1,-1.052162018E0,3.252436523E0,9.140592041E0,9.758883702E0
7.050988750E-1,-1.060993652E0,3.227139130E0,9.139095154E0,9.750035627E0
7.150798750E-1,-1.084644470E0,3.208727417E0,9.119485931E0,9.728176032E0
7.250608750E-1,-1.051114197E0,3.201841736E0,9.114546204E0,9.717591474E0
7.350418750E-1,-1.041683807E0,3.183579712E0,9.108708344E0,9.705094158E0
7.450228750E-1,-1.102906494E0,3.178490295E0,9.143286438E0,9.742632610E0
7.550005000E-1,-1.125659180E0,3.218756561E0,9.172475739E0,9.785796522E0
7.649805000E-1,-1.133442993E0,3.240461426E0,9.162147217E0,9.784182382E0
7.749615000E-1,-1.140777740E0,3.212619324E0,9.185648346E0,9.797878970E0
7.849425000E-1,-1.112636261E0,3.172802124E0,9.164542236E0,9.761837284E0
7.949235000E-1,-1.117875366E0,3.187172241E0,9.157207489E0,9.760233667E0
8.049045000E-1,-1.119971008E0,3.209326172E0,9.161099396E0,9.771379211E0
8.148845000E-1,-1.129850464E0,3.193159790E0,9.175918579E0,9.781120247E0
8.248655000E-1,-1.123713226E0,3.186573486E0,9.182055817E0,9.784024275E0
8.348465000E-1,-1.125359802E0,3.208727417E0,9.170679474E0,9.780783626E0
8.448275000E-1,-1.141077118E0,3.223546600E0,9.199120331E0,9.814128822E0
8.548085000E-1,-1.145118713E0,3.201841736E0,9.195677490E0,9.804262944E0
8.647895000E-1,-1.157991943E0,3.203188934E0,9.166338501E0,9.778707798E0
8.747695000E-1,-1.148561554E0,3.224594421E0,9.168284454E0,9.786451996E0
8.847505000E-1,-1.128802643E0,3.217559052E0,9.146579590E0,9.761495779E0
8.947315000E-1,-1.123862915E0,3.202739868E0,9.146878967E0,9.756331552E0
9.047125000E-1,-1.109792175E0,3.191662903E0,9.176068268E0,9.778475322E0
9.146935000E-1,-1.095871124E0,3.162772980E0,9.157207489E0,9.749795661E0
9.246745000E-1,-1.127754822E0,3.165317688E0,9.186396790E0,9.781664121E0
9.346545000E-1,-1.166075134E0,3.197500763E0,9.196425934E0,9.806018168E0
9.446355000E-1,-1.185235291E0,3.213367767E0,9.185498657E0,9.803259697E0
9.546165000E-1,-1.167272644E0,3.227887573E0,9.168434143E0,9.789891125E0
9.645975000E-1,-1.125509491E0,3.217708740E0,9.138496399E0,9.753591010E0
9.745785000E-1,-1.066532135E0,3.217259674E0,9.162296906E0,9.769131752E0
9.845595000E-1,-1.015787659E0,3.186423798E0,9.191935272E0,9.781451591E0
9.945395000E-1,-9.596543884E-1,3.164868622E0,9.166937256E0,9.745258775E0
1.004520500E0,-9.463320923E-1,3.159030762E0,9.210796051E0,9.783342153E0
1.014501500E0,-9.930349731E-1,3.169658661E0,9.239087219E0,9.818023586E0
1.024482500E0,-1.039737854E0,3.198249207E0,9.249864807E0,9.842248307E0
1.034463500E0,-1.072070618E0,3.232078857E0,9.258696442E0,9.865045816E0
1.044444500E0,-1.076411591E0,3.232378235E0,9.213939514E0,9.823625214E0
1.054424500E0,-1.070873108E0,3.219205627E0,9.194479980E0,9.800434490E0
1.064405500E0,-1.061891785E0,3.216361542E0,9.197773132E0,9.801613455E0
1.074386500E0,-1.064137115E0,3.209475861E0,9.148675232E0,9.753531750E0
1.084367500E0,-1.084943848E0,3.196452942E0,9.142987061E0,9.746210902E0
1.094348500E0,-1.087787933E0,3.230282593E0,9.146429901E0,9.760900991E0
1.104329500E0,-1.078207855E0,3.231929169E0,9.136700134E0,9.751265952E0
1.114309500E0,-1.091829529E0,3.223396912E0,9.163045349E0,9.774649837E0
1.124290500E0,-1.094374237E0,3.228486328E0,9.202413483E0,9.813520920E0
1.134271500E0,-1.065484314E0,3.215762787E0,9.249415741E0,9.850283177E0
1.144252500E0,-1.070573730E0,3.196902008E0,9.256900177E0,9.851726318E0
1.154233500E0,-1.089584198E0,3.185375977E0,9.277557220E0,9.869492480E0
1.164214500E0,-1.095871124E0,3.214265900E0,9.242979126E0,9.847085961E0
1.174194500E0,-1.099313965E0,3.243754578E0,9.210945740E0,9.827103153E0
1.184175500E0,-1.089284821E0,3.221301270E0,9.197473755E0,9.805959757E0
1.194156500E0,-1.068478088E0,3.196452942E0,9.187145233E0,9.785836416E0
1.204137500E0,-1.057401123E0,3.226989441E0,9.158854065E0,9.768119869E0
1.214118500E0,-1.055754547E0,3.234922943E0,9.181307373E0,9.791616271E0
1.224099500E0,-1.062640228E0,3.217858429E0,9.156459045E0,9.763429693E0
1.234079500E0,-1.052311707E0,3.205284576E0,9.137897644E0,9.740758825E0
1.244060500E0,-1.038240967E0,3.145858154E0,9.166937256E0,9.747158893E0
1.254041500E0,-1.069226532E0,3.175945587E0,9.236841888E0,9.825941371E0
1.264022500E0,-1.070124664E0,3.167563019E0,9.208850098E0,9.797017015E0
1.274003500E0,-1.065783691E0,3.127596130E0,9.212891693E0,9.787498443E0
1.283984500E0,-1.065035248E0,3.152145081E0,9.223369904E0,9.805145132E0
1.293964500E0,-1.071920929E0,3.168311462E0,9.178612976E0,9.769040289E0
1.303945500E0,-1.075812836E0,3.135829010E0,9.202563171E0,9.781511425E0
1.313926500E0,-1.079105988E0,3.128494263E0,9.247918854E0,9.822217123E0
1.323907500E0,-1.077459412E0,3.153641968E0,9.202563171E0,9.787417707E0
1.333888500E0,-1.069675598E0,3.170107727E0,9.198970642E0,9.788506002E0
1.343869500E0,-1.057700500E0,3.172203369E0,9.140741730E0,9.733178511E0
1.353849500E0,-1.029109955E0,3.156635742E0,9.100625153E0,9.687352305E0
1.363830500E0,-1.035845947E0,3.167263641E0,9.168583832E0,9.755381350E0
1.373811500E0,-1.036744080E0,3.194357300E0,9.146878967E0,9.743928966E0
1.383792500E0,-1.012494507E0,3.166664886E0,9.142687683E0,9.728393994E0
1.393773500E0,-1.007554779E0,3.177442474E0,9.151669006E0,9.739833310E0
1.403754500E0,-1.006656647E0,3.205583954E0,9.118587799E0,9.717909731E0
1.413734500E0,-1.011446686E0,3.212469635E0,9.126371613E0,9.727982543E0
1.423715500E0,-1.015039215E0,3.218307495E0,9.167236633E0,9.768625043E0
1.433696500E0,-1.025068359E0,3.225791931E0,9.154213715E0,9.759924562E0
1.443677500E0,-1.017583923E0,3.224594421E0,9.163195038E0,9.767171009E0
1.453658500E0,-1.032403107E0,3.211272125E0,9.155560913E0,9.757172770E0
1.463639500E0,-1.023421783E0,3.179987183E0,9.217681732E0,9.804354499E0
1.473619500E0,-1.019529877E0,3.133134613E0,9.239087219E0,9.809011485E0
1.483600500E0,-1.055155792E0,3.127596130E0,9.262139282E0,9.832722684E0
1.493581500E0,-1.087338867E0,3.161874847E0,9.272916870E0,9.857319394E0
1.503562500E0,-1.110241241E0,3.174897766E0,9.266629944E0,9.858145969E0
1.513543500E0,-1.099014587E0,3.175795898E0,9.275012512E0,9.865058021E0
1.523524500E0,-1.062191162E0,3.163371735E0,9.262438660E0,9.845198866E0
1.533504500E0,-1.067729645E0,3.166365509E0,9.243877258E0,9.829302310E0
1.543485500E0,-1.069525909E0,3.186723175E0,9.229507141E0,9.822570556E0
1.553466500E0,-1.043480072E0,3.198249207E0,9.206904144E0,9.802282008E0
1.563447500E0,-1.015787659E0,3.197650452E0,9.203610992E0,9.796083313E0
1.573428500E0,-1.003064117E0,3.191513214E0,9.189989319E0,9.779969218E0
1.583409500E0,-1.000519409E0,3.194806366E0,9.176816711E0,9.768407842E0
1.593389500E0,-9.949809265E-1,3.216511230E0,9.171876984E0,9.770325427E0
1.603370500E0,-9.994715881E-1,3.209326172E0,9.145831146E0,9.743969688E0
1.613351500E0,-1.024170227E0,3.204985199E0,9.132508850E0,9.732603592E0
1.623332500E0,-1.022972717E0,3.221750336E0,9.158255310E0,9.762161069E0
1.633313500E0,-1.009800110E0,3.200195160E0,9.147028656E0,9.743155472E0
1.643294500E0,-1.013841705E0,3.164269867E0,9.189091187E0,9.771380436E0
1.653274500E0,-1.025667114E0,3.165916443E0,9.201814728E0,9.785111866E0
1.663255500E0,-1.017583923E0,3.160677338E0,9.176217957E0,9.758500615E0
1.673236500E0,-9.967771912E-1,3.127745819E0,9.175170135E0,9.744747595E0
1.683217500E0,-1.006956024E0,3.114573212E0,9.155411224E0,9.722966698E0
1.693198500E0,-1.025367737E0,3.152594147E0,9.156608734E0,9.738260233E0
1.703179500E0,-1.063837738E0,3.172353058E0,9.192534027E0,9.782548569E0
1.713159500E0,-1.090632019E0,3.165018311E0,9.203311615E0,9.793250931E0
1.723140500E0,-1.089883575E0,3.145558777E0,9.213191071E0,9.796186806E0
1.733121500E0,-1.077908478E0,3.124153290E0,9.222920837E0,9.797167409E0
1.743102500E0,-1.071771240E0,3.142714691E0,9.213191071E0,9.793275189E0
1.753086750E0,-1.088237000E0,3.142115936E0,9.189839630E0,9.772937366E0
1.763067750E0,-1.093326416E0,3.133883057E0,9.194479980E0,9.775226226E0
1.773047750E0,-1.088835754E0,3.144660645E0,9.218729553E0,9.800991197E0
1.783028750E0,-1.050515442E0,3.162623291E0,9.221573639E0,9.805263339E0
1.793009750E0,-1.035995636E0,3.171305237E0,9.182504883E0,9.769793231E0
1.802990750E0,-1.052910461E0,3.189118195E0,9.200317841E0,9.794128020E0
1.812971750E0,-1.059646454E0,3.213517456E0,9.192084961E0,9.795099335E0
1.822952750E0,-1.050216064E0,3.219804382E0,9.175918579E0,9.780980309E0
1.832933750E0,-1.029858398E0,3.191812592E0,9.188642120E0,9.781585759E0
1.842913750E0,-1.019380188E0,3.141517181E0,9.214388580E0,9.788422911E0
1.852894750E0,-1.020428009E0,3.137026520E0,9.208251343E0,9.781313894E0
1.862875750E0,-1.011596375E0,3.166814575E0,9.201215973E0,9.783374528E0
1.872856750E0,-1.052311707E0,3.184028778E0,9.233698425E0,9.823776555E0
1.882837750E0,-1.067879333E0,3.175496521E0,9.234746246E0,9.823679690E0
1.892818750E0,-1.055604858E0,3.172053680E0,9.232650604E0,9.819270001E0
1.902798750E0,-1.027463379E0,3.188220062E0,9.205706635E0,9.796196344E0
1.912779750E0,-1.017733612E0,3.199746094E0,9.184450836E0,9.778972028E0
1.922760750E0,-1.001567230E0,3.175197144E0,9.158404999E0,9.744813797E0
1.932741750E0,-9.862989807E-1,3.165167999E0,9.145232391E0,9.727607601E0
1.942722750E0,-1.004710693E0,3.183280334E0,9.175469513E0,9.763808583E0
1.952703750E0,-1.016835480E0,3.156036987E0,9.194929047E0,9.774520143E0
1.962683750E0,-1.035247192E0,3.158132629E0,9.232800293E0,9.812753931E0
1.972664750E0,-1.035396881E0,3.184477844E0,9.216184845E0,9.805662086E0
1.982645750E0,-1.005010071E0,3.171305237E0,9.215586090E0,9.797665494E0
1.992626750E0,-1.010847931E0,3.166814575E0,9.240883484E0,9.820613813E0
2.002607750E0,-1.011596375E0,3.172502747E0,9.202862549E0,9.786765553E0
2.012588750E0,-1.003812561E0,3.154240723E0,9.171278229E0,9.750344535E0
2.022568750E0,-1.004561005E0,3.144510956E0,9.187594299E0,9.762631867E0
2.032549750E0,-1.029708710E0,3.155438232E0,9.194479980E0,9.775252047E0
2.042530750E0,-1.048868866E0,3.183430023E0,9.181606750E0,9.774264941E0
2.052511750E0,-1.068927155E0,3.186573486E0,9.192683716E0,9.787864412E0
2.062492750E0,-1.075513458E0,3.165916443E0,9.224866791E0,9.812131442E0
2.072473750E0,-1.077609100E0,3.157084808E0,9.245823212E0,9.829225439E0
2.082453750E0,-1.077459412E0,3.162623291E0,9.241033173E0,9.826484568E0
2.092434750E0,-1.054856415E0,3.152294769E0,9.222471771E0,9.803247928E0
2.102415750E0,-1.024619293E0,3.122506714E0,9.224118347E0,9.792050457E0
2.112396750E0,-1.025966492E0,3.133583679E0,9.241482239E0,9.812081731E0
2.122377750E0,-1.013841705E0,3.131488037E0,9.255103912E0,9.822985328E0
2.132358750E0,-1.012793884E0,3.116519165E0,9.265133057E0,9.827570082E0
2.142339750E0,-1.034199371E0,3.144211578E0,9.274563446E0,9.847495210E0
2.152319750E0,-1.066532135E0,3.161276093E0,9.253008270E0,9.836123188E0
2.162300750E0,-1.047072601E0,3.163222046E0,9.210197296E0,9.794389668E0
2.172281750E0,-1.034349060E0,3.166515198E0,9.200317841E0,9.784811947E0
2.182262750E0,-1.021176453E0,3.154689789E0,9.204359436E0,9.783409510E0
2.192243750E0,-9.903405762E-1,3.132984924E0,9.199120331E0,9.768325540E0
2.202224750E0,-9.909393311E-1,3.136876831E0,9.182654572E0,9.754132560E0
2.212204750E0,-9.891430664E-1,3.175197144E0,9.171876984E0,9.756208706E0
2.222185750E0,-9.705816650E-1,3.157084808E0,9.167835388E0,9.744661049E0
2.232166750E0,-9.933343506E-1,3.131488037E0,9.183852081E0,9.753772066E0
2.242147750E0,-1.016835480E0,3.144810333E0,9.231153717E0,9.804997979E0
2.252128750E0,-1.007405090E0,3.147654419E0,9.220525818E0,9.794931838E0
2.262109750E0,-9.855505371E-1,3.126398621E0,9.254056091E0,9.817496236E0
2.272089750E0,-9.925859070E-1,3.121159515E0,9.255253601E0,9.817666868E0
2.282070750E0,-1.031205597E0,3.140469360E0,9.258696442E0,9.831042294E0
2.292051750E0,-1.024768982E0,3.129841461E0,9.169481964E0,9.742969698E0
2.302032750E0,-1.017284546E0,3.141068115E0,9.233997803E0,9.806522940E0
2.312013750E0,-9.969268799E-1,3.115621033E0,9.194030914E0,9.758645504E0
2.321994750E0,-1.035546570E0,3.130589905E0,9.231153717E0,9.802405256E0
2.331975750E0,-1.057251434E0,3.131637726E0,9.238787842E0,9.812244199E0
2.341955750E0,-1.058448944E0,3.124752045E0,9.233399048E0,9.805103135E0
2.351936750E0,-1.068478088E0,3.113076324E0,9.208700409E0,9.779215349E0
2.361917750E0,-1.068627777E0,3.113226013E0,9.187444611E0,9.759266366E0
2.371898750E0,-1.061592407E0,3.103346558E0,9.191336517E0,9.759016614E0
2.381879750E0,-1.056203613E0,3.092868347E0,9.180708618E0,9.745091658E0
2.391860750E0,-1.059945831E0,3.118016052E0,9.214388580E0,9.785216716E0
2.401840750E0,-1.054706726E0,3.153342590E0,9.210346985E0,9.792163568E0
2.411821750E0,-1.045725403E0,3.171754303E0,9.217981110E0,9.804322655E0
2.421802750E0,-1.036295013E0,3.150797882E0,9.264234924E0,9.840095700E0
2.431783750E0,-9.996212769E-1,3.113974457E0,9.261091461E0,9.821603467E0
2.441764750E0,-9.970765686E-1,3.096161499E0,9.225465546E0,9.782105716E0
2.451745750E0,-1.008003845E0,3.119812317E0,9.236991577E0,9.801597525E0
2.461725750E0,-9.918374634E-1,3.126847687E0,9.228908386E0,9.794573396E0
2.471706750E0,-9.849517822E-1,3.079396362E0,9.225914612E0,9.776006976E0
2.481687750E0,-1.027762756E0,3.096760254E0,9.239236908E0,9.798454929E0
2.491668750E0,-1.059197388E0,3.154091034E0,9.248667297E0,9.828938708E0
2.501649750E0,-1.031954041E0,3.130889282E0,9.230255585E0,9.801276192E0
2.511630750E0,-1.014290771E0,3.085982666E0,9.241781616E0,9.796050338E0
2.521610750E0,-1.023122406E0,3.068319397E0,9.227710876E0,9.778139465E0
2.531591750E0,-1.044378204E0,3.094365234E0,9.203760681E0,9.766014167E0
2.541572750E0,-1.060843964E0,3.106789398E0,9.227261810E0,9.793870062E0
2.551553750E0,-1.038240967E0,3.104394379E0,9.220226440E0,9.784057664E0
2.561534750E0,-1.020727386E0,3.100203094E0,9.229956207E0,9.790057978E0
2.571515750E0,-1.031504974E0,3.096909943E0,9.239985352E0,9.799601165E0
2.581496750E0,-1.036893768E0,3.099604340E0,9.231004028E0,9.792554882E0
2.591476750E0,-1.024170227E0,3.090173950E0,9.214837646E0,9.772989949E0
2.601457750E0,-1.013542328E0,3.091072083E0,9.227411499E0,9.784023592E0
2.611438750E0,-1.007105713E0,3.081192627E0,9.234297180E0,9.786738697E0
2.621419750E0,-1.030157776E0,3.069516907E0,9.226663055E0,9.778265195E0
2.631400750E0,-1.019380188E0,3.062631226E0,9.225764923E0,9.774128320E0
2.641381750E0,-1.020727386E0,3.058290253E0,9.231902161E0,9.778703450E0
2.651361750E0,-1.049168243E0,3.077450409E0,9.256600800E0,9.811019997E0
2.661342750E0,-1.070873108E0,3.104993134E0,9.254505157E0,9.820061980E0
2.671323750E0,-1.071771240E0,3.115321655E0,9.234446869E0,9.804536276E0
2.681304750E0,-1.057700500E0,3.097658386E0,9.230255585E0,9.793458837E0
2.691285750E0,-1.044078827E0,3.088527374E0,9.221723328E0,9.781067583E0
2.701266750E0,-1.040486298E0,3.085533600E0,9.191186829E0,9.750950961E0
2.711247750E0,-1.050515442E0,3.086581421E0,9.170679474E0,9.733032907E0
2.721227750E0,-1.055754547E0,3.096909943E0,9.201665039E0,9.766069237E0
2.731208750E0,-1.057401123E0,3.087928619E0,9.235045624E0,9.794869472E0
2.741189750E0,-1.065933380E0,3.109633484E0,9.256151733E0,9.822544441E0
2.751166750E0,-1.063238983E0,3.117267609E0,9.298064575E0,9.864169470E0
2.761147750E0,-1.060694275E0,3.120411072E0,9.300459595E0,9.867146815E0
2.771128750E0,-1.050066376E0,3.133134613E0,9.262288971E0,9.834082005E0
2.781108750E0,-1.034648438E0,3.135379944E0,9.247469788E0,9.819205785E0
2.791089750E0,-1.022972717E0,3.136876831E0,9.208550720E0,9.781813523E0
2.801070750E0,-1.010548553E0,3.132984924E0,9.196875000E0,9.768280948E0
2.811051750E0,-1.022373962E0,3.154989166E0,9.229357452E0,9.807152703E0
2.821032750E0,-1.029109955E0,3.147953796E0,9.235794067E0,9.811654930E0
2.831013750E0,-1.035995636E0,3.115471344E0,9.239236908E0,9.805251006E0
2.840994750E0,-1.030606842E0,3.108735352E0,9.239685974E0,9.802968063E0
2.850974750E0,-1.036295013E0,3.125350800E0,9.238189087E0,9.807439145E0
2.860955750E0,-1.067430267E0,3.121907959E0,9.244176636E0,9.815320593E0
2.870936750E0,-1.065933380E0,3.119512939E0,9.258696442E0,9.828073807E0
2.880917750E0,-1.052311707E0,3.094664612E0,9.266180878E0,9.825803634E0
2.890898750E0,-1.069376221E0,3.102897491E0,9.279652863E0,9.842941410E0
2.900879750E0,-1.062789917E0,3.124752045E0,9.260043640E0,9.830666608E0
2.910859750E0,-1.041833496E0,3.123704224E0,9.238488464E0,9.807783349E0
2.920840750E0,-1.034049683E0,3.124153290E0,9.221873016E0,9.791452112E0
2.930821750E0,-9.975256348E-1,3.101999359E0,9.176517334E0,9.737860535E0
2.940802750E0,-9.933343506E-1,3.084485779E0,9.173822937E0,9.729326438E0
2.950783750E0,-1.041534119E0,3.124452667E0,9.193581848E0,9.765702483E0
2.960764750E0,-1.068178711E0,3.132386169E0,9.235045624E0,9.810143554E0
2.970745750E0,-1.065484314E0,3.140319672E0,9.256750488E0,9.832817199E0
2.980725750E0,-1.048719177E0,3.163671112E0,9.249266052E0,9.831457131E0
2.990706750E0,-1.006207581E0,3.113076324E0,9.237740021E0,9.799976459E0
3.000687750E0,-1.010997620E0,3.100352783E0,9.230255585E0,9.789378005E0
3.010668750E0,-1.031055908E0,3.144660645E0,9.181906128E0,9.760090522E0
3.020649750E0,-1.014440460E0,3.148402863E0,9.127868500E0,9.708733871E0
3.030630750E0,-1.013991394E0,3.139122162E0,9.121282196E0,9.699487378E0
3.040610750E0,-1.006806335E0,3.115171967E0,9.121581573E0,9.691295361E0
3.050591750E0,-1.002914429E0,3.079096985E0,9.157806244E0,9.713500440E0
3.060572750E0,-1.055305481E0,3.100502472E0,9.204060059E0,9.769416912E0
3.070553750E0,-1.067729645E0,3.132236481E0,9.250164185E0,9.824280605E0
3.080534750E0,-1.055305481E0,3.135829010E0,9.245823212E0,9.819996950E0
3.090515750E0,-1.060394897E0,3.138523407E0,9.205257568E0,9.783227147E0
3.100496750E0,-1.038989410E0,3.143463135E0,9.186546478E0,9.764911452E0
3.110476750E0,-1.036893768E0,3.129691772E0,9.209897919E0,9.782246110E0
3.120457750E0,-1.017134857E0,3.150648193E0,9.223369904E0,9.799576508E0
3.130438750E0,-1.012793884E0,3.157833252E0,9.205257568E0,9.784397232E0
3.140419750E0,-1.009949799E0,3.180136871E0,9.215436401E0,9.800894713E0
3.150400750E0,-1.022074585E0,3.215463409E0,9.214687958E0,9.812966705E0
3.160381750E0,-9.999206543E-1,3.215912476E0,9.183403015E0,9.781453128E0
3.170361750E0,-9.762698364E-1,3.184926910E0,9.217082977E0,9.800585739E0
3.180342750E0,-9.626481628E-1,3.169059906E0,9.216035156E0,9.793106564E0
3.190323750E0,-9.704319763E-1,3.185675354E0,9.200617218E0,9.784764835E0
3.200304750E0,-9.912387085E-1,3.216211853E0,9.180858307E0,9.778278586E0
3.210285750E0,-1.020577698E0,3.226839752E0,9.163494415E0,9.768505695E0
3.220266750E0,-1.007405090E0,3.212769012E0,9.187743988E0,9.785263887E0
3.230247750E0,-9.566606140E-1,3.175197144E0,9.222920837E0,9.800986950E0
3.240227750E0,-9.629475403E-1,3.172353058E0,9.226513367E0,9.804062464E0
3.250208750E0,-9.901908875E-1,3.209625549E0,9.233548737E0,9.825507439E0
3.260189750E0,-1.008003845E0,3.220852203E0,9.191935272E0,9.791916805E0
3.270170750E0,-9.961784363E-1,3.201392670E0,9.169182587E0,9.762950159E0
3.280151750E0,-9.906399536E-1,3.184777222E0,9.170679474E0,9.758357212E0
3.290132750E0,-1.006357269E0,3.184477844E0,9.187893677E0,9.776044410E0
3.300113750E0,-1.033301239E0,3.170107727E0,9.192084961E0,9.778124584E0
3.310093750E0,-1.051862640E0,3.184178467E0,9.202413483E0,9.794377031E0
3.320074750E0,-1.063089294E0,3.207679596E0,9.179361420E0,9.781617622E0
3.330055750E0,-1.051114197E0,3.209326172E0,9.140442352E0,9.744347178E0
3.340036750E0,-1.036893768E0,3.210373993E0,9.126371613E0,9.729969613E0
3.350017750E0,-1.030008087E0,3.193758545E0,9.159303131E0,9.754683191E0
3.359998750E0,-1.030906219E0,3.182082825E0,9.174870758E0,9.765586115E0
3.369978750E0,-1.038839722E0,3.190914459E0,9.223669281E0,9.815151454E0
3.379959750E0,-1.058748322E0,3.196452942E0,9.228459320E0,9.823579838E0
3.389940750E0,-1.065184937E0,3.193608856E0,9.224866791E0,9.819975753E0
3.399921750E0,-1.059347076E0,3.216810608E0,9.217532043E0,9.820029719E0
3.409902750E0,-1.079555054E0,3.239413605E0,9.203311615E0,9.816322341E0
3.419883750E0,-1.093027039E0,3.239563293E0,9.207802277E0,9.822072144E0
3.429864750E0,-1.086291046E0,3.224744110E0,9.197922821E0,9.807180381E0
3.439844750E0,-1.081201630E0,3.210373993E0,9.170380096E0,9.776061029E0
3.449825750E0,-1.102008362E0,3.193010101E0,9.176517334E0,9.778456234E0
3.459806750E0,-1.123264160E0,3.174149323E0,9.186546478E0,9.784149554E0
3.469787750E0,-1.130449219E0,3.184028778E0,9.212891693E0,9.812916388E0
3.479768750E0,-1.123413849E0,3.168610840E0,9.216633911E0,9.810631681E0
3.489749750E0,-1.139729919E0,3.164718933E0,9.211544495E0,9.806476543E0
3.499730750E0,-1.134490814E0,3.187770996E0,9.182504883E0,9.786079361E0
3.509710750E0,-1.146166534E0,3.202290802E0,9.150022430E0,9.761724980E0
3.519691750E0,-1.148711243E0,3.228037262E0,9.177565155E0,9.796298498E0
3.529672750E0,-1.113684082E0,3.219055939E0,9.171427917E0,9.783542478E0
3.539653750E0,-1.074166260E0,3.195105743E0,9.166488190E0,9.766628876E0
3.549634750E0,-1.077758789E0,3.208727417E0,9.172475739E0,9.777106260E0
3.559615750E0,-1.091530151E0,3.248245239E0,9.167236633E0,9.786764670E0
3.569595750E0,-1.074166260E0,3.257226562E0,9.165590057E0,9.786286279E0
3.579576750E0,-1.070124664E0,3.244503021E0,9.164841614E0,9.780914500E0
3.589557750E0,-1.102307739E0,3.282673645E0,9.162296906E0,9.794830943E0
3.599538750E0,-1.144070892E0,3.334166565E0,9.168434143E0,9.822715995E0
3.609519750E0,-1.136137390E0,3.343896332E0,9.131311340E0,9.790469735E0
3.619500750E0,-1.105600891E0,3.335214386E0,9.106762390E0,9.761102887E0
3.629481750E0,-1.099014587E0,3.334016876E0,9.140891418E0,9.791802567E0
3.639461750E0,-1.144669647E0,3.354075165E0,9.142537994E0,9.805411250E0
3.649442750E0,-1.156045990E0,3.350931702E0,9.114246826E0,9.779298585E0
3.659423750E0,-1.197060699E0,3.336561584E0,9.170080719E0,9.831377214E0
3.669404750E0,-1.243015137E0,3.366798706E0,9.106313324E0,9.788021379E0
3.679385750E0,-1.283131714E0,3.417842560E0,9.079069977E0,9.785580535E0
3.689366750E0,-1.324296112E0,3.439397736E0,9.026080170E0,9.749530256E0
3.699346750E0,-1.418600006E0,3.476370850E0,8.994795227E0,9.746995508E0
3.709327750E0,-1.465153198E0,3.519481201E0,8.976383514E0,9.752378316E0
3.719308750E0,-1.532962189E0,3.544479218E0,8.948391724E0,9.746128484E0
3.729289750E0,-1.534459076E0,3.559298401E0,8.972192230E0,9.773607480E0
3.739270750E0,-1.487307129E0,3.554508362E0,8.916508026E0,9.713430268E0
3.749251750E0,-1.462758179E0,3.558699646E0,8.880133667E0,9.677849896E0
3.759233000E0,-1.469045105E0,3.580404510E0,8.785530396E0,9.600152827E0
3.769213000E0,-1.451531525E0,3.650907898E0,8.681945801E0,9.529546429E0
3.779194000E0,-1.478325806E0,3.732039185E0,8.613388367E0,9.502842881E0
3.789175000E0,-1.466799774E0,3.765868835E0,8.528065796E0,9.437222890E0
3.799156000E0,-1.522334290E0,3.819607086E0,8.503516846E0,9.445459159E0
3.809137000E0,-1.542841644E0,3.901037750E0,8.553812256E0,9.527127583E0
3.819118000E0,-1.558109894E0,3.920646973E0,8.570727081E0,9.552828996E0
3.829099000E0,-1.581012268E0,3.906576233E0,8.635991364E0,9.609437262E0
3.839079000E0,-1.587598572E0,3.900289307E0,8.695717163E0,9.661688407E0
3.849060000E0,-1.581161957E0,3.895199890E0,8.718320160E0,9.678933915E0
3.859041000E0,-1.608405304E0,3.870650940E0,8.790470123E0,9.738648331E0
3.869022000E0,-1.653311920E0,3.866908722E0,8.798403625E0,9.751837249E0
3.879003000E0,-1.665137329E0,3.834126892E0,8.922944641E0,9.853535021E0
3.888984000E0,-1.645677795E0,3.771706696E0,9.048084412E0,9.939912390E0
3.898964000E0,-1.682351532E0,3.708538055E0,9.042994995E0,9.917626715E0
3.908945000E0,-1.669627991E0,3.672014008E0,8.974138184E0,9.839029456E0
3.918926000E0,-1.527573395E0,3.698508911E0,9.098230133E0,9.939327955E0
3.928907000E0,-1.438059540E0,3.610641632E0,9.110354919E0,9.904711757E0
3.938888000E0,-1.356329498E0,3.508853302E0,8.979377289E0,9.735548146E0
3.948869000E0,-1.293460236E0,3.445684662E0,8.912316742E0,9.642363397E0
3.958850000E0,-1.134640503E0,3.397035828E0,8.797206116E0,9.498320743E0
3.968830000E0,-1.025966492E0,3.390000458E0,8.667725372E0,9.363448802E0
3.978811000E0,-9.361532593E-1,3.383114777E0,8.507259064E0,9.203005232E0
3.988792000E0,-9.237290955E-1,3.402274933E0,8.349936218E0,9.063673924E0
3.998773000E0,-8.479866028E-1,3.418441315E0,8.262967072E0,8.982285184E0
4.008754000E0,-8.232879639E-1,3.340303802E0,8.311765594E0,8.995603363E0
4.018735000E0,-9.412426758E-1,3.223696289E0,8.399034119E0,9.045547505E0
4.028716000E0,-1.076710968E0,3.188070374E0,8.639583893E0,9.271758682E0
4.038696000E0,-1.164129181E0,3.175945587E0,8.976084137E0,9.592284064E0
4.048677000E0,-1.277892609E0,3.180136871E0,9.548942871E0,1.014537284E1
4.058658000E0,-1.260229340E0,3.234773254E0,9.808952179E0,1.040516597E1
4.068639000E0,-9.945318604E-1,3.075055389E0,9.955198059E0,1.046666268E1
4.078620000E0,-7.128176880E-1,2.738405457E0,1.039573196E1,1.077396012E1
4.088601000E0,-5.113366699E-1,2.395917664E0,1.091634933E1,1.118787600E1
4.098581000E0,-2.230361938E-1,1.951940918E0,1.086380859E1,1.104002517E1
4.108562000E0,-5.403762817E-2,1.681603088E0,1.063673080E1,1.076897169E1
4.118543000E0,-1.017883301E-2,1.824256439E0,1.060020676E1,1.075604009E1
4.128524000E0,1.038839722E-1,2.075883179E0,1.009650421E1,1.030822391E1
4.138505000E0,3.682342529E-2,2.309397583E0,1.006177643E1,1.032346928E1
4.148486000E0,-8.547225952E-2,2.497406616E0,1.038480469E1,1.068122248E1
4.158467000E0,1.481918335E-2,2.480641479E0,1.043614792E1,1.072692804E1
4.168447000E0,2.401007080E-1,2.309247894E0,1.003453308E1,1.029961787E1
4.178428000E0,4.421804810E-1,2.146985321E0,9.718540192E0,9.962685030E0
4.188409000E0,7.228468323E-1,2.088756409E0,9.225465546E0,9.486549711E0
4.198390000E0,8.446934509E-1,2.206112366E0,8.881181488E0,9.189984952E0
4.208371000E0,7.481442261E-1,2.415377197E0,9.096433868E0,9.441338672E0
4.218352000E0,6.159690857E-1,2.571053467E0,9.422904968E0,9.786770248E0
4.228333000E0,5.001100159E-1,2.621348877E0,9.608518982E0,9.972222269E0
4.238313000E0,5.652246094E-1,2.690804443E0,9.981543274E0,1.035331413E1
4.248294000E0,8.819659424E-1,2.622546387E0,9.247020721E0,9.652098513E0
4.258275000E0,1.122515717E0,2.502945099E0,8.728648682E0,9.149540071E0
4.268256000E0,1.318158875E0,2.493664398E0,8.620274048E0,9.070007145E0
4.278237000E0,1.392254791E0,2.633623352E0,8.870403900E0,9.357265130E0
4.288218000E0,1.248254242E0,2.752176819E0,9.254804535E0,9.735708648E0
4.298198000E0,7.460485840E-1,2.885399780E0,9.434730377E0,9.894253770E0
4.308179000E0,6.086343384E-1,2.558329926E0,9.721983032E0,1.007136743E1
4.318160000E0,1.028211823E0,1.925446014E0,9.824220428E0,1.006378999E1
4.328141000E0,1.345402222E0,1.634451141E0,9.515412598E0,9.748056964E0
4.338122000E0,1.452429657E0,1.735790405E0,9.207203522E0,9.481303546E0
4.348103000E0,1.402733002E0,2.022144928E0,9.011710052E0,9.341715477E0
4.358084000E0,1.212778015E0,2.459834747E0,9.039701843E0,9.446577524E0
4.368064000E0,1.007105713E0,2.922522583E0,9.403445435E0,9.898494138E0
4.378045000E0,9.068142700E-1,3.163820801E0,9.547296295E0,1.009866034E1
4.388026000E0,8.559201050E-1,3.200494537E0,9.475146332E0,1.003763730E1
4.398007000E0,9.343569946E-1,3.020718384E0,9.361831970E0,9.881379478E0
4.407988000E0,9.789642334E-1,2.850372620E0,9.308842163E0,9.784556069E0
4.417969000E0,9.604028320E-1,2.833757172E0,9.174571381E0,9.650145767E0
4.427949000E0,7.860154724E-1,2.944077759E0,9.059909821E0,9.558628569E0
4.437930000E0,5.716612244E-1,3.068169708E0,9.207951965E0,9.722491518E0
4.447911000E0,4.098477173E-1,3.056943054E0,9.844129028E0,1.031599497E1
4.457892000E0,3.185375977E-1,3.008743286E0,1.011850845E1,1.056116545E1
4.467873000E0,7.903564453E-2,3.110531616E0,9.845027161E0,1.032502849E1
4.477854000E0,-1.826202393E-1,3.137026520E0,9.734407196E0,1.022902581E1
4.487834000E0,-4.373904419E-1,3.168760529E0,9.907597046E0,1.041118787E1
4.497815000E0,-6.935078430E-1,3.300187225E0,1.028556107E1,1.082427620E1
4.507796000E0,-8.604107666E-1,3.318000183E0,1.068552933E1,1.122185229E1
4.517777000E0,-9.033714294E-1,3.317850494E0,1.066382446E1,1.120452427E1
4.527758000E0,-8.788224792E-1,3.234174500E0,1.051593201E1,1.103707568E1
4.537739000E0,-7.200027466E-1,3.086132355E0,1.038435562E1,1.085713860E1
4.547720000E0,-4.872367859E-1,2.903063049E0,1.042941193E1,1.083687261E1
4.557700000E0,-3.499722290E-1,2.757715302E0,1.038749908E1,1.075302801E1
4.567681000E0,-2.574645996E-1,2.670147400E0,1.044902115E1,1.078786439E1
4.577662000E0,-2.258802795E-1,2.563868408E0,1.065663940E1,1.096304732E1
4.587643000E0,-2.233355713E-1,2.522254944E0,1.045875092E1,1.076090700E1
4.597624000E0,-9.175918579E-2,2.562521210E0,1.043779449E1,1.074813884E1
4.607605000E0,9.879455566E-3,2.633174286E0,1.054631882E1,1.087007567E1
4.617586000E0,1.496887207E-1,2.662962341E0,1.066951263E1,1.099783047E1
4.627566000E0,1.308279419E-1,2.694546661E0,1.082698517E1,1.115801530E1
4.637547000E0,5.089416504E-3,2.711760864E0,1.084569626E1,1.117957066E1
4.647528000E0,-5.852828979E-2,2.710413666E0,1.083252365E1,1.116661705E1
4.657509000E0,-3.502716064E-2,2.592159576E0,1.067969147E1,1.098982839E1
4.667490000E0,1.751358032E-2,2.371817780E0,1.041698776E1,1.068360709E1
4.677471000E0,8.247848511E-2,2.133962402E0,1.027777725E1,1.049729982E1
4.687451000E0,1.326242065E-1,1.951342163E0,9.984686737E0,1.017444321E1
4.697432000E0,7.604187012E-2,1.831740875E0,9.593400421E0,9.767005101E0
4.707413000E0,4.116439819E-2,1.707349548E0,9.452693024E0,9.605734870E0
4.717394000E0,-4.340972900E-3,1.682501221E0,9.308243408E0,9.459081591E0
4.727375000E0,-6.900650024E-2,1.748364258E0,9.100026398E0,9.266715703E0
4.737356000E0,-1.794767761E-1,1.817071381E0,8.982221375E0,9.165929366E0
4.747336000E0,-2.924917603E-1,1.856289825E0,8.917555847E0,9.113405820E0
4.757317042E0,-4.743635559E-1,1.880389709E0,8.780291290E0,8.991907550E0
4.767298042E0,-6.388714600E-1,1.870959320E0,8.875942383E0,9.093459116E0
4.777279042E0,-7.262896729E-1,1.890119476E0,8.897647247E0,9.125139717E0
4.787260042E0,-7.047344971E-1,1.900447998E0,8.713081055E0,8.945732769E0
4.797241042E0,-5.671705627E-1,1.903591461E0,8.513545990E0,8.742185552E0
4.807222042E0,-4.297563171E-1,1.882485352E0,8.536448364E0,8.752107876E0
4.817202042E0,-3.471281433E-1,1.826651459E0,8.543783112E0,8.743762540E0
4.827183042E0,-3.397933960E-1,1.781295776E0,8.632398834E0,8.820815372E0
4.837164042E0,-2.667453003E-1,1.786834259E0,8.849597168E0,9.032125982E0
4.847145042E0,-1.413061523E-1,1.759890289E0,8.807235260E0,8.982459250E0
4.857126042E0,-1.212478638E-2,1.772913208E0,8.640032959E0,8.820064500E0
4.867107042E0,7.244934082E-2,1.772015076E0,8.649912415E0,8.829851138E0
4.877087042E0,1.273851013E-1,1.767823792E0,8.585097198E0,8.766146350E0
4.887068042E0,1.911524963E-1,1.872905273E0,8.491841125E0,8.698027313E0
4.897049042E0,1.594184875E-1,2.002535706E0,8.311615906E0,8.550936935E0
4.907030042E0,5.388793945E-2,2.081571350E0,8.259075165E0,8.517521105E0
4.917011042E0,-2.903961182E-2,2.106269989E0,8.230035553E0,8.495334118E0
4.926992042E0,-7.319778442E-2,2.176324310E0,8.187973022E0,8.472582111E0
4.936973042E0,-9.355545044E-2,2.259850616E0,8.099357300E0,8.409236951E0
4.946953042E0,-1.155596924E-1,2.318678284E0,8.048612823E0,8.376741097E0
4.956934042E0,-1.655557251E-1,2.411036224E0,7.996521149E0,8.353732989E0
4.966915042E0,-2.281256104E-1,2.458188171E0,8.052055664E0,8.422014652E0
4.976896042E0,-2.757266235E-1,2.498155060E0,8.188721466E0,8.565743583E0
4.986877042E0,-2.823129272E-1,2.581831055E0,8.195607147E0,8.597297755E0
4.996858042E0,-2.981799316E-1,2.701432343E0,8.142916718E0,8.584505847E0
5.006838042E0,-3.213816833E-1,2.751128998E0,8.167914734E0,8.624779884E0
5.016819042E0,-3.847000122E-1,2.828069000E0,8.279133453E0,8.757283775E0
5.026800042E0,-4.360432434E-1,2.967129822E0,8.402327271E0,8.921496323E0
5.036781042E0,-4.300556946E-1,3.021167450E0,8.580157471E0,9.106673536E0
5.046762042E0,-4.412823486E-1,3.052302704E0,8.882229309E0,9.402408171E0
5.056743042E0,-4.938230896E-1,3.128943329E0,9.136700134E0,9.670234586E0
5.066723042E0,-5.072950745E-1,3.160377960E0,9.246571655E0,9.784907998E0
5.076704042E0,-4.514611816E-1,3.138074341E0,9.486822052E0,1.000255569E1
5.086685042E0,-4.140390015E-1,3.105741577E0,9.810149689E0,1.029835404E1
5.096666042E0,-4.562512207E-1,3.160228271E0,1.011446686E1,1.060649083E1
5.106647042E0,-5.694158936E-1,3.253933411E0,1.037911652E1,1.089212453E1
5.116628042E0,-6.288423157E-1,3.304378510E0,1.065634003E1,1.117461153E1
5.126609042E0,-6.953041077E-1,3.275787964E0,1.093595856E1,1.143719477E1
5.136589042E0,-7.393125916E-1,3.239712982E0,1.126692032E1,1.174673643E1
5.146570042E0,-7.896080017E-1,3.163371735E0,1.141705811E1,1.187348379E1
5.156551042E0,-7.840695190E-1,3.087180176E0,1.162497574E1,1.205344380E1
5.166532042E0,-7.089257812E-1,2.902913361E0,1.189636139E1,1.226592418E1
5.176513042E0,-6.581813049E-1,2.677631836E0,1.219244568E1,1.250034586E1
5.186494042E0,-6.189628601E-1,2.525398407E0,1.235919891E1,1.262974861E1
5.196474042E0,-5.215155029E-1,2.330354004E0,1.238494537E1,1.261306466E1
5.206455042E0,-4.444258118E-1,2.131866760E0,1.232596802E1,1.251686294E1
5.216436042E0,-4.077520752E-1,1.923350372E0,1.224558517E1,1.240241487E1
5.226417042E0,-3.635939026E-1,1.759890289E0,1.220097794E1,1.233261031E1
5.236398042E0,-2.438429260E-1,1.610201569E0,1.195234497E1,1.206278404E1
5.246379042E0,-1.103205872E-1,1.510508881E0,1.166838547E1,1.176626649E1
5.256360042E0,4.505630493E-2,1.471739502E0,1.131646729E1,1.141185695E1
5.266340042E0,1.251397705E-1,1.419049072E0,1.098790054E1,1.107986095E1
5.276321042E0,1.089733887E-1,1.416504364E0,1.078671890E1,1.087987429E1
5.286302042E0,1.302291870E-1,1.419348450E0,1.059511734E1,1.069055757E1
5.296283042E0,2.174977112E-1,1.388961639E0,1.030741562E1,1.040285232E1
5.306264042E0,2.754272461E-1,1.314416656E0,1.003543121E1,1.012489165E1
5.316245042E0,2.210902405E-1,1.342707825E0,9.785001984E0,9.879170462E0
5.326225042E0,1.877096558E-1,1.416953430E0,9.501341858E0,9.608251092E0
5.336206042E0,2.231858826E-1,1.363215179E0,9.309141541E0,9.411072404E0
5.346187042E0,2.357597351E-1,1.337319031E0,9.186696167E0,9.286516640E0
5.356168042E0,2.050735474E-1,1.303489380E0,9.067993011E0,9.163494802E0
5.366149042E0,1.664538574E-1,1.282532959E0,9.006620636E0,9.099000657E0
5.376130042E0,9.415420532E-2,1.285377045E0,8.988807678E0,9.080733596E0
5.386110042E0,5.059478760E-2,1.330283661E0,8.897048492E0,8.996092837E0
5.396091042E0,2.514770508E-2,1.376986542E0,8.802445221E0,8.909532323E0
5.406072042E0,1.451980591E-2,1.440005493E0,8.752299500E0,8.869981577E0
5.416053042E0,9.430389404E-3,1.525328064E0,8.594377899E0,8.728690973E0
5.426034042E0,-1.930984497E-2,1.588646393E0,8.330476685E0,8.480625686E0
5.436015042E0,-6.062393188E-2,1.690135345E0,8.203989716E0,8.376495687E0
5.445995042E0,-7.334747314E-2,1.813628540E0,8.045619049E0,8.247824817E0
5.455976042E0,-7.768844604E-2,1.913620605E0,7.771688690E0,8.004194176E0
5.465957042E0,-4.685256958E-2,1.983674927E0,7.549550629E0,7.805951324E0
5.475938042E0,-2.829116821E-2,2.034868469E0,7.505841522E0,7.776833998E0
5.485919042E0,-4.640350342E-3,2.011217651E0,7.464826813E0,7.731019164E0
5.495900042E0,2.514770508E-2,1.965263214E0,7.421866150E0,7.677694254E0
5.505881042E0,-7.619155884E-2,1.914518738E0,7.756121063E0,7.989280387E0
5.515861042E0,-1.990859985E-1,1.801354065E0,8.149353333E0,8.348441258E0
5.525842042E0,-1.978884888E-1,1.735790405E0,8.257578278E0,8.440362978E0
5.535823042E0,-9.145980835E-2,1.767075348E0,8.337212677E0,8.522912378E0
5.545804042E0,6.825805664E-2,1.850002899E0,8.358917542E0,8.561464381E0
5.555785042E0,7.424560547E-2,1.993404694E0,8.239465942E0,8.477498080E0
5.565766042E0,-1.257385254E-2,2.131866760E0,8.302484894E0,8.571829991E0
5.575746042E0,-8.622070312E-2,2.181114349E0,8.335266724E0,8.616342912E0
5.585727042E0,-1.420545959E-1,2.254461823E0,8.317304077E0,8.618603409E0
5.595708042E0,-1.740879822E-1,2.401306458E0,8.343349915E0,8.683781845E0
5.605689042E0,-2.802172852E-1,2.553539886E0,8.394842834E0,8.779093000E0
5.615670042E0,-4.534071350E-1,2.636018372E0,8.566685486E0,8.974534590E0
5.625651042E0,-5.394781494E-1,2.725083160E0,8.704548798E0,9.137082941E0
5.635631042E0,-6.462062073E-1,2.878663788E0,8.738079071E0,9.222706410E0
5.645612042E0,-7.470964050E-1,3.024161224E0,8.831933899E0,9.365188762E0
5.655593042E0,-8.243357849E-1,3.187172241E0,9.082063751E0,9.660304258E0
5.665574042E0,-8.713380432E-1,3.302582245E0,9.277257843E0,9.886040287E0
5.675555042E0,-8.159532166E-1,3.313210144E0,9.434131622E0,1.003224704E1
5.685536042E0,-7.213499451E-1,3.278781738E0,9.742789764E0,1.030498461E1
5.695517042E0,-7.403604126E-1,3.308420105E0,1.013078293E1,1.068300238E1
5.705497042E0,-8.175997925E-1,3.392545166E0,1.044976959E1,1.101705572E1
5.715478042E0,-8.075706482E-1,3.377276917E0,1.058778259E1,1.114267966E1
5.725459042E0,-7.111711121E-1,3.184627533E0,1.078582077E1,1.126860890E1
5.735440042E0,-6.493496704E-1,3.026556244E0,1.105196732E1,1.147726793E1
5.745421042E0,-6.556365967E-1,3.065175934E0,1.114043335E1,1.157300385E1
5.755401500E0,-6.993457031E-1,3.217559052E0,1.121557709E1,1.168892382E1
5.765381500E0,-7.409591675E-1,3.268303528E0,1.150836823E1,1.198638259E1
5.775362500E0,-8.042774963E-1,3.186124420E0,1.177167068E1,1.222172172E1
5.785343500E0,-9.500743103E-1,3.142415314E0,1.180684753E1,1.225475679E1
5.795324500E0,-1.114282837E0,3.172502747E0,1.185384979E1,1.232153216E1
5.805305500E0,-1.229243774E0,3.100652161E0,1.194351334E1,1.240050785E1
5.815286500E0,-1.256936188E0,2.862796783E0,1.197195419E1,1.237348703E1
5.825266500E0,-1.169368286E0,2.613115997E0,1.178828613E1,1.213093102E1
5.835247500E0,-9.348060608E-1,2.414778442E0,1.146286285E1,1.175169103E1
5.845228500E0,-6.099815369E-1,2.208357697E0,1.104837479E1,1.128341733E1
5.855209500E0,-2.993774414E-1,1.989063721E0,1.062310913E1,1.081186612E1
5.865190500E0,-9.610015869E-2,1.891017609E0,1.020547760E1,1.037964141E1
5.875171500E0,-1.112187195E-1,1.900747375E0,9.776469727E0,9.960149121E0
5.885152500E0,-3.074606323E-1,1.989213409E0,9.533824310E0,9.743988301E0
5.895132500E0,-5.644761658E-1,2.071991272E0,9.435329132E0,9.676632524E0
5.905113500E0,-8.226892090E-1,2.182910614E0,9.258995819E0,9.548346446E0
5.915094500E0,-9.452842712E-1,2.270628204E0,9.088350677E0,9.415276567E0
5.925075500E0,-9.319619751E-1,2.282154236E0,8.960067444E0,9.292986047E0
5.935056500E0,-8.717871094E-1,2.262844391E0,8.848998413E0,9.175252063E0
5.945037500E0,-8.141569519E-1,2.201022949E0,8.733887787E0,9.043680083E0
5.955017500E0,-7.664062500E-1,2.151925049E0,8.673114166E0,8.968894542E0
5.964998500E0,-6.643185425E-1,2.107916565E0,8.674161987E0,8.951296976E0
5.974979500E0,-6.249504089E-1,2.067051544E0,8.689280548E0,8.953594895E0
5.984960500E0,-6.147715759E-1,2.083966370E0,8.615783386E0,8.885526618E0
5.994941500E0,-5.637277222E-1,2.079326019E0,8.566685486E0,8.833430016E0
6.004922500E0,-5.134323120E-1,2.049537964E0,8.639883270E0,8.894481521E0
6.014903500E0,-4.754113770E-1,1.998344421E0,8.607550507E0,8.849255456E0
6.024883500E0,-4.396357727E-1,1.987566833E0,8.531209259E0,8.770703105E0
6.034864500E0,-3.971241760E-1,1.997446289E0,8.468040619E0,8.709489722E0
6.044845500E0,-3.517684937E-1,1.988015900E0,8.350684662E0,8.591267812E0
6.054826500E0,-3.239263916E-1,1.994602203E0,8.269703064E0,8.513010926E0
6.064807500E0,-3.132984924E-1,2.039808197E0,8.158484344E0,8.415452467E0
6.074788500E0,-3.552113342E-1,2.098186798E0,8.057145081E0,8.333435653E0
6.084768500E0,-3.802093506E-1,2.127226410E0,7.943231964E0,8.231924768E0
6.094749500E0,-4.143383789E-1,2.160307617E0,7.898475037E0,8.199055628E0
6.104730500E0,-4.608915710E-1,2.200873260E0,7.926466827E0,8.239243929E0
6.114711500E0,-5.072950745E-1,2.220183105E0,8.020321655E0,8.337392924E0
6.124692500E0,-5.272036743E-1,2.262545013E0,8.117769012E0,8.443650123E0
6.134673500E0,-4.153862000E-1,2.336940308E0,8.046367493E0,8.389151657E0
6.144654500E0,-2.186952209E-1,2.279759216E0,7.796986084E0,8.126384293E0
6.154634500E0,-7.664062500E-2,2.278112640E0,7.667954407E0,7.999574724E0
6.164615500E0,-2.342628479E-1,2.591411133E0,8.090675354E0,8.498783350E0
6.174596500E0,-3.393443298E-1,2.709814911E0,8.090525665E0,8.539019672E0
6.184577500E0,-4.451742554E-1,2.790197754E0,8.268655243E0,8.738080061E0
6.194558500E0,-5.625302124E-1,2.926564178E0,8.521180115E0,9.027276925E0
6.204539500E0,-6.568341064E-1,3.044518890E0,8.626860352E0,9.171872537E0
6.214519500E0,-6.936575317E-1,3.151246948E0,8.881780243E0,9.449737477E0
6.224500500E0,-6.128256226E-1,3.162024536E0,9.206155701E0,9.753320316E0
6.234481500E0,-4.673281860E-1,3.112477570E0,9.320368195E0,9.837437448E0
6.244462500E0,-3.619473267E-1,3.059787140E0,9.420210571E0,9.911290048E0
6.254443500E0,-3.132984924E-1,3.044668579E0,9.610165558E0,1.008580412E1
6.264424500E0,-2.613565063E-1,3.063080292E0,9.815388794E0,1.028555420E1
6.274405500E0,-1.884580994E-1,3.092568970E0,9.962682495E0,1.043333800E1
6.284385500E0,-1.802252197E-1,3.155737610E0,1.023616379E1,1.071308593E1
6.294366500E0,-2.359094238E-1,3.187022552E0,1.062774948E1,1.109782974E1
6.304347500E0,-2.900967407E-1,3.130889282E0,1.102038300E1,1.146016864E1
6.314328500E0,-2.124082947E-1,3.056943054E0,1.118743561E1,1.159951437E1
6.324309500E0,-1.158590698E-1,3.031645660E0,1.126093277E1,1.166245710E1
6.334290500E0,-3.293151855E-2,3.122955780E0,1.142424316E1,1.184344836E1
6.344270500E0,3.772155762E-2,3.271746368E0,1.148606461E1,1.194300747E1
6.354251500E0,8.053253174E-2,3.373983765E0,1.154893387E1,1.203196266E1
6.364232500E0,4.206253052E-2,3.476670227E0,1.162422729E1,1.213308144E1
6.374213500E0,-1.362167358E-2,3.497626648E0,1.165027313E1,1.216398133E1
6.384194500E0,-1.431024170E-1,3.442541199E0,1.165236877E1,1.215110144E1
6.394175500E0,-3.430865479E-1,3.310515747E0,1.158096725E1,1.204973134E1
6.404156500E0,-4.516108704E-1,3.078348541E0,1.142439285E1,1.184047863E1
6.414136500E0,-4.974156189E-1,2.790646820E0,1.126063339E1,1.161193336E1
6.424117500E0,-4.728666687E-1,2.575244751E0,1.112441666E1,1.142839159E1
6.434098500E0,-3.679348755E-1,2.457739105E0,1.092637848E1,1.120542745E1
6.444079500E0,-2.327659607E-1,2.373913422E0,1.069106781E1,1.095392970E1
6.454060500E0,-1.463955688E-1,2.279459839E0,1.050799850E1,1.075339023E1
6.464041500E0,-1.586700439E-1,2.259251862E0,1.042417282E1,1.066736960E1
6.474021500E0,-1.842668152E-1,2.321672058E0,1.024020538E1,1.050171042E1
6.484002500E0,-1.580712891E-1,2.373913422E0,1.001163071E1,1.029044221E1
6.493983500E0,-1.246907043E-1,2.377955017E0,9.818981323E0,1.010359402E1
6.503964500E0,-8.307723999E-2,2.377206573E0,9.574240265E0,9.865297237E0
6.513945500E0,-5.777984619E-2,2.359543304E0,9.272168427E0,9.567857150E0
6.523926500E0,-3.442840576E-2,2.283501434E0,9.075327759E0,9.358265761E0
6.533907500E0,-3.382965088E-2,2.218087463E0,8.902437286E0,9.174663268E0
6.543887500E0,-5.179229736E-2,2.180365906E0,8.796607361E0,9.062945381E0
6.553868500E0,-6.316864014E-2,2.116748199E0,8.745413818E0,8.998159594E0
6.563849500E0,-6.915618896E-2,2.033521271E0,8.699758759E0,8.934528180E0
6.573830500E0,-1.191522217E-1,1.990859985E0,8.599617004E0,8.827861199E0
6.583811500E0,-1.571731567E-1,2.007325745E0,8.498577118E0,8.733834958E0
6.593792500E0,-2.029779053E-1,2.038011932E0,8.317902832E0,8.566341120E0
6.603772500E0,-2.303709412E-1,2.048490143E0,8.143665161E0,8.400515752E0
6.613753500E0,-2.155517578E-1,2.072290649E0,7.997119904E0,8.264065455E0
6.623734500E0,-1.697470093E-1,2.134710846E0,7.881111145E0,8.166867045E0
6.633715500E0,-1.733395386E-1,2.256557465E0,7.748636627E0,8.072389223E0
6.643696500E0,-1.728904724E-1,2.390229492E0,7.624844055E0,7.992579997E0
6.653677500E0,-1.296304321E-1,2.491269379E0,7.530540161E0,7.932985711E0
6.663658500E0,-9.071136475E-2,2.574645996E0,7.438780975E0,7.872260981E0
6.673638500E0,-1.435514832E-1,2.672991486E0,7.393125916E0,7.862811286E0
6.683619500E0,-1.841171265E-1,2.785258026E0,7.435487823E0,7.942168505E0
6.693600500E0,-2.676434326E-1,2.803520050E0,7.493716736E0,8.005444909E0
6.703581500E0,-3.507206726E-1,2.855162659E0,7.675139465E0,8.196506854E0
6.713562500E0,-4.608915710E-1,2.953059082E0,7.849227448E0,8.399008900E0
6.723543500E0,-5.177732849E-1,3.032992859E0,7.908354492E0,8.485823804E0
6.733523500E0,-5.016069031E-1,3.057092743E0,8.025560760E0,8.602735091E0
6.743504500E0,-4.158352661E-1,3.023113403E0,8.199349365E0,8.748797839E0
6.753485500E0,-3.611988831E-1,3.012635193E0,8.436605988E0,8.965643091E0
6.763466792E0,-3.216810608E-1,3.077450409E0,8.571176147E0,9.112586915E0
6.773447792E0,-2.865042114E-1,3.107986908E0,8.612639923E0,9.160744169E0
6.783428792E0,-2.893482971E-1,3.112327881E0,8.778644714E0,9.318525114E0
6.793409792E0,-3.215313721E-1,3.155288544E0,8.934919739E0,9.481140172E0
6.803389792E0,-3.463796997E-1,3.238665161E0,9.013356628E0,9.583815975E0
6.813370792E0,-3.348536682E-1,3.318898315E0,9.057814178E0,9.652523540E0
6.823351792E0,-4.047583008E-1,3.353775787E0,9.234446869E0,9.832937012E0
6.833332792E0,-4.790039062E-1,3.390000458E0,9.384434967E0,9.989452813E0
6.843313792E0,-5.388793945E-1,3.445534973E0,9.585466919E0,1.020016070E1
6.853294792E0,-5.816903687E-1,3.469335480E0,9.824070740E0,1.043489426E1
6.863274792E0,-5.785469055E-1,3.486849060E0,1.006102798E1,1.066382281E1
6.873255792E0,-6.231541443E-1,3.515738983E0,1.031145721E1,1.091214422E1
6.883236792E0,-6.360273743E-1,3.551364899E0,1.055724609E1,1.115670958E1
6.893217792E0,-6.312373352E-1,3.608396301E0,1.070498886E1,1.131440546E1
6.903198792E0,-5.652246094E-1,3.677552490E0,1.085437820E1,1.147438004E1
6.913179792E0,-5.071453857E-1,3.722010040E0,1.100331848E1,1.162684707E1
6.923160792E0,-4.713697815E-1,3.736829224E0,1.123638382E1,1.185083978E1
6.933140792E0,-4.331991577E-1,3.762725372E0,1.152318741E1,1.212969958E1
6.943121792E0,-4.005670166E-1,3.749253387E0,1.181537979E1,1.240244147E1
6.953102792E0,-4.743635559E-1,3.633394318E0,1.208332260E1,1.262668841E1
6.963083792E0,-5.806425476E-1,3.397784271E0,1.230007187E1,1.277395208E1
6.973064792E0,-6.583309937E-1,3.102747803E0,1.235201385E1,1.275275225E1
6.983045792E0,-6.861730957E-1,2.781964874E0,1.213990494E1,1.247347001E1
6.993026792E0,-6.785389709E-1,2.551893311E0,1.173335037E1,1.202680696E1
7.003006792E0,-5.763015747E-1,2.411335602E0,1.120060822E1,1.147171684E1
7.012987792E0,-3.685336304E-1,2.320175171E0,1.060799057E1,1.086501237E1
7.022968792E0,-2.194436646E-1,2.254761200E0,1.002180954E1,1.027466642E1
7.032949792E0,-2.802172852E-1,2.294428711E0,9.608968048E0,9.883076029E0
7.042930792E0,-5.219645691E-1,2.414628754E0,9.304950256E0,9.627303792E0
7.052911792E0,-7.653584290E-1,2.501298523E0,9.081764374E0,9.450963547E0
7.062891792E0,-9.361532593E-1,2.572999420E0,8.969497833E0,9.378091507E0
7.072872792E0,-9.918374634E-1,2.641257477E0,8.795409851E0,9.236840210E0
7.082853792E0,-9.689350891E-1,2.654280396E0,8.541837158E0,8.997056278E0
7.092834792E0,-9.280700684E-1,2.605481873E0,8.363857269E0,8.809310885E0
7.102815792E0,-9.228309631E-1,2.527643738E0,8.235424347E0,8.663879848E0
7.112796792E0,-9.379495239E-1,2.448608093E0,8.128396912E0,8.540858696E0
7.122776792E0,-9.623487854E-1,2.379751282E0,8.189769287E0,8.582636677E0
7.132757792E0,-9.690847778E-1,2.300565948E0,8.301586761E0,8.668798749E0
7.142738792E0,-9.541159058E-1,2.260299683E0,8.383466492E0,8.735090282E0
7.152719792E0,-9.056167603E-1,2.192490692E0,8.464298401E0,8.790421183E0
7.162700792E0,-8.075706482E-1,2.125879211E0,8.557105408E0,8.854128175E0
7.172681792E0,-6.876699829E-1,2.098336487E0,8.615933075E0,8.894391984E0
7.182662792E0,-6.577322388E-1,2.108215942E0,8.586594086E0,8.866046704E0
7.192642792E0,-6.261479187E-1,2.128124542E0,8.530460815E0,8.814178181E0
7.202623792E0,-5.752537537E-1,2.201921082E0,8.415649567E0,8.717943046E0
7.212604792E0,-5.665718079E-1,2.272873535E0,8.202642517E0,8.530551095E0
7.222585792E0,-5.487588501E-1,2.327210541E0,8.019872589E0,8.368715644E0
7.232566792E0,-4.996609497E-1,2.394271088E0,7.891888733E0,8.262209322E0
7.242547792E0,-4.487667847E-1,2.427501984E0,7.741601257E0,8.125672128E0
7.252527792E0,-3.986210632E-1,2.492167511E0,7.594307556E0,8.002706099E0
7.262508792E0,-4.014651489E-1,2.575244751E0,7.432344360E0,7.876090558E0
7.272489792E0,-4.150868225E-1,2.641856232E0,7.335495758E0,7.807765329E0
7.282470792E0,-4.140390015E-1,2.691403198E0,7.313192139E0,7.803708011E0
7.292451792E0,-3.608995056E-1,2.712658997E0,7.226821747E0,7.727594700E0
7.302432792E0,-3.291654968E-1,2.698139191E0,7.312294006E0,7.801150470E0
7.312413792E0,-3.538641357E-1,2.724933472E0,7.449558563E0,7.940176638E0
7.322393792E0,-4.105961609E-1,2.806064758E0,7.505242767E0,8.023170049E0
7.332374792E0,-4.370910645E-1,2.886447601E0,7.630382538E0,8.169783720E0
7.342355792E0,-4.468208313E-1,2.984044647E0,7.790549469E0,8.354449853E0
7.352336792E0,-4.981640625E-1,3.081492004E0,8.034841461E0,8.619886177E0
7.362317792E0,-5.433700562E-1,3.152594147E0,8.318202209E0,8.912159608E0
7.372298792E0,-5.840853882E-1,3.203039246E0,8.688981171E0,9.278955218E0
7.382279792E0,-6.381230164E-1,3.243305511E0,9.077573090E0,9.660671034E0
7.392259792E0,-6.758445740E-1,3.274291077E0,9.502988434E0,1.007395340E1
7.402240792E0,-7.451504517E-1,3.266806641E0,1.005279510E1,1.059650717E1
7.412221792E0,-8.346643066E-1,3.247347107E0,1.065768723E1,1.117265522E1
7.422202792E0,-8.111631775E-1,3.245999908E0,1.096410004E1,1.146324521E1
7.432183792E0,-7.217990112E-1,3.281625824E0,1.119387222E1,1.168729384E1
7.442164792E0,-6.631210327E-1,3.310366058E0,1.132694550E1,1.181938861E1
7.452144792E0,-7.252418518E-1,3.346291351E0,1.155671768E1,1.205327197E1
7.462125792E0,-7.731422424E-1,3.398233337E0,1.202329742E1,1.251820353E1
7.472106792E0,-7.316784668E-1,3.505859528E0,1.226684097E1,1.277895895E1
7.482087792E0,-6.747967529E-1,3.561244354E0,1.237940689E1,1.289912892E1
7.492068792E0,-6.219566345E-1,3.576362915E0,1.256756561E1,1.308131902E1
7.502049792E0,-6.484515381E-1,3.572770386E0,1.270692581E1,1.321556435E1
7.512030792E0,-7.146139526E-1,3.546425171E0,1.254990234E1,1.306092851E1
7.522010792E0,-7.786807251E-1,3.434008942E0,1.223869949E1,1.273516888E1
7.531991792E0,-8.231382751E-1,3.239862671E0,1.187211182E1,1.233374662E1
7.541972792E0,-9.074130249E-1,3.008593597E0,1.148696274E1,1.190904475E1
7.551953792E0,-1.003513184E0,2.819387054E0,1.128173950E1,1.167191622E1
7.561934792E0,-9.598040771E-1,2.749781799E0,1.113998428E1,1.151441591E1
7.571915792E0,-8.077203369E-1,2.706671448E0,1.091769653E1,1.127717075E1
7.581895792E0,-6.575825500E-1,2.629432068E0,1.078058167E1,1.111608154E1
7.591876792E0,-5.322930908E-1,2.589165802E0,1.063238983E1,1.095604075E1
7.601857792E0,-4.592449951E-1,2.540067902E0,1.042656784E1,1.074132989E1
7.611838792E0,-3.242257690E-1,2.467917938E0,1.026116180E1,1.055874911E1
7.621819792E0,-2.125579834E-1,2.391576691E0,1.004755600E1,1.033045021E1
7.631800792E0,-9.340576172E-2,2.313888245E0,9.658515015E0,9.932256326E0
7.641781792E0,1.721420288E-2,2.256707153E0,9.341174927E0,9.609920526E0
7.651761792E0,8.981323242E-2,2.224524078E0,9.027277679E0,9.297758660E0
7.661742792E0,1.062789917E-1,2.214345245E0,8.671916656E0,8.950796534E0
7.671723792E0,7.214996338E-2,2.186802521E0,8.509654083E0,8.786439751E0
7.681704792E0,2.933898926E-2,2.137405243E0,8.488248596E0,8.753269457E0
7.691685792E0,-2.963836670E-2,2.127376099E0,8.508755951E0,8.770720343E0
7.701666792E0,-1.019380188E-1,2.125430145E0,8.430319061E0,8.694718175E0
7.711646792E0,-1.324745178E-1,2.133363647E0,8.313861237E0,8.584234305E0
7.721627792E0,-1.547781372E-1,2.189796295E0,8.257278900E0,8.544110189E0
7.731608792E0,-1.362167358E-1,2.247276764E0,8.022117920E0,8.332057595E0
7.741589792E0,-6.691085815E-2,2.280357971E0,7.796237640E0,8.123166309E0
7.751570792E0,-4.864883423E-2,2.362686768E0,7.625742188E0,7.983520488E0
7.761551375E0,-6.556365967E-2,2.458038483E0,7.477400665E0,7.871325967E0
7.771532375E0,-1.017883301E-1,2.544408875E0,7.312743073E0,7.743422281E0
7.781512375E0,-1.392105103E-1,2.634072418E0,7.246730347E0,7.711862148E0
7.791493375E0,-1.913021851E-1,2.750679932E0,7.225474548E0,7.733713148E0
7.801474375E0,-2.656974792E-1,2.880010986E0,7.177574158E0,7.738386732E0
7.811455375E0,-3.100053406E-1,2.995121613E0,7.218439178E0,7.821299186E0
7.821436375E0,-3.200344849E-1,3.082390137E0,7.268285522E0,7.901362254E0
7.831417375E0,-3.402424622E-1,3.142415314E0,7.343728638E0,7.995054049E0
7.841398375E0,-3.231779480E-1,3.199746094E0,7.484286346E0,8.146002772E0
7.851378375E0,-2.658471680E-1,3.302133179E0,7.548353119E0,8.243324151E0
7.861359375E0,-2.275268555E-1,3.383114777E0,7.666457520E0,8.382827981E0
7.871340375E0,-1.868115234E-1,3.427123260E0,7.928562469E0,8.639570315E0
7.881321375E0,-1.558259583E-1,3.457360382E0,8.188272400E0,8.889624707E0
7.891302375E0,-1.371148682E-1,3.474873962E0,8.389454041E0,9.081656712E0
7.901283375E0,-1.898052979E-1,3.472778320E0,8.669072571E0,9.340719167E0
7.911264375E0,-2.380050659E-1,3.460952911E0,8.916657715E0,9.567738827E0
7.921244375E0,-2.561174011E-1,3.490142212E0,9.031169586E0,9.685489811E0
7.931225375E0,-3.138972473E-1,3.531905365E0,9.066496124E0,9.735206159E0
7.941206375E0,-4.125421143E-1,3.597618713E0,9.150471497E0,9.840944061E0
7.951187375E0,-5.430706787E-1,3.688180389E0,9.352102203E0,1.006774135E1
7.961168375E0,-6.421646118E-1,3.746409302E0,9.603878632E0,1.032871932E1
7.971149375E0,-7.343728638E-1,3.761078796E0,9.923913116E0,1.063809517E1
7.981129375E0,-8.195457458E-1,3.750301208E0,1.033286270E1,1.102290642E1
7.991110375E0,-8.023315430E-1,3.711382141E0,1.072774155E1,1.137991793E1
8.001091375E0,-7.048841858E-1,3.670217743E0,1.093086914E1,1.155211064E1
8.011072375E0,-6.638694763E-1,3.570075989E0,1.113788864E1,1.171489345E1
8.021053375E0,-6.926097107E-1,3.478616180E0,1.118968094E1,1.173837460E1
8.031034375E0,-6.891668701E-1,3.480562134E0,1.114252899E1,1.169381102E1
8.041015375E0,-6.939569092E-1,3.487896881E0,1.125105331E1,1.179971193E1
8.050995375E0,-7.179071045E-1,3.464695129E0,1.158680511E1,1.211501365E1
8.060976375E0,-8.068222046E-1,3.476221161E0,1.179846497E1,1.232634784E1
8.070957375E0,-9.523196411E-1,3.470532990E0,1.200683167E1,1.253457293E1
8.080938375E0,-1.117126923E0,3.377127228E0,1.213346832E1,1.264412964E1
8.090919375E0,-1.206790466E0,3.188220062E0,1.206880280E1,1.254101636E1
8.100900375E0,-1.234482880E0,2.977757721E0,1.181133820E1,1.224331242E1
8.110880375E0,-1.211281128E0,2.744243317E0,1.140463394E1,1.179252936E1
8.120861375E0,-1.121018829E0,2.535427551E0,1.096454910E1,1.130957175E1
8.130842375E0,-9.957293701E-1,2.362686768E0,1.050395691E1,1.081234833E1
8.140823375E0,-9.071136475E-1,2.265538788E0,1.008916946E1,1.038011858E1
8.150804375E0,-9.306147766E-1,2.270628204E0,9.750723267E0,1.005477004E1
8.160785375E0,-1.021326141E0,2.335144043E0,9.488468628E0,9.824817642E0
8.170766375E0,-1.129850464E0,2.384691010E0,9.284293213E0,9.652016046E0
8.180746375E0,-1.193318481E0,2.431244202E0,9.114845581E0,9.508699561E0
8.190727375E0,-1.198258209E0,2.461331635E0,8.979227600E0,9.387252231E0
8.200708375E0,-1.122815094E0,2.462229767E0,8.836274872E0,9.241376671E0
8.210689375E0,-9.635462952E-1,2.459535370E0,8.628506927E0,9.023794518E0
8.220670375E0,-8.047265625E-1,2.408790894E0,8.482111359E0,8.854155607E0
8.230651375E0,-7.379653931E-1,2.358645172E0,8.411308594E0,8.766864447E0
8.240632375E0,-6.794371033E-1,2.324965210E0,8.326584778E0,8.671742159E0
8.250612375E0,-6.183641052E-1,2.258503418E0,8.233179016E0,8.559699093E0
8.260593375E0,-6.212081909E-1,2.236199799E0,8.164322205E0,8.487793955E0
8.270574375E0,-6.848258972E-1,2.236199799E0,8.153993683E0,8.482758338E0
8.280555375E0,-6.915618896E-1,2.227218475E0,8.142916718E0,8.470292359E0
8.290536375E0,-6.839277649E-1,2.218237152E0,8.134085083E0,8.458822222E0
8.300517375E0,-6.468049622E-1,2.209854584E0,8.110434265E0,8.430952373E0
8.310498375E0,-6.074368286E-1,2.206411743E0,8.069269867E0,8.387511459E0
8.320478375E0,-5.763015747E-1,2.230212250E0,8.022267609E0,8.346421255E0
8.330459375E0,-5.529501343E-1,2.276915131E0,7.879464569E0,8.220465818E0
8.340440375E0,-5.351371765E-1,2.282603302E0,7.801177368E0,8.145858946E0
8.350421375E0,-5.135820007E-1,2.316732330E0,7.752827911E0,8.107857657E0
8.360402375E0,-4.728666687E-1,2.384391632E0,7.744445343E0,8.116979735E0
8.370383375E0,-4.276606750E-1,2.420915680E0,7.753875732E0,8.134267961E0
8.380363375E0,-3.876937866E-1,2.443818054E0,7.781418457E0,8.165355250E0
8.390344375E0,-3.614982605E-1,2.494562531E0,7.788603516E0,8.186322003E0
8.400325375E0,-3.469784546E-1,2.532733154E0,7.805668030E0,8.213621897E0
8.410306375E0,-3.438349915E-1,2.631378021E0,7.838749237E0,8.275769595E0
8.420287375E0,-3.546125793E-1,2.722688141E0,7.904163208E0,8.367471351E0
8.430268375E0,-3.876937866E-1,2.809956665E0,7.999215546E0,8.487261766E0
8.440249375E0,-3.805087280E-1,2.912792816E0,8.086484070E0,8.603509371E0
8.450229375E0,-2.926414490E-1,3.042423248E0,8.203241272E0,8.754150193E0
8.460210375E0,-2.242337036E-1,3.154689789E0,8.304131470E0,8.885997293E0
8.470191375E0,-2.258802795E-1,3.216960297E0,8.495733032E0,9.087207228E0
8.480172375E0,-2.694396973E-1,3.293151855E0,8.761280823E0,9.363625823E0
8.490153375E0,-3.044668579E-1,3.372786255E0,8.997040558E0,9.613278628E0
8.500134375E0,-2.802172852E-1,3.420986023E0,9.247619476E0,9.864082982E0
8.510115375E0,-2.656974792E-1,3.440595245E0,9.512718201E0,1.011929337E1
8.520095375E0,-2.806663513E-1,3.426973572E0,9.847122803E0,1.043018451E1
8.530076375E0,-3.056643677E-1,3.345542908E0,1.017449203E1,1.071477374E1
8.540057375E0,-3.296145630E-1,3.232378235E0,1.044557831E1,1.093924225E1
8.550038375E0,-3.858975220E-1,3.143014069E0,1.062505508E1,1.108689541E1
8.560019375E0,-4.022135925E-1,3.116519165E0,1.094329330E1,1.138552308E1
8.570000375E0,-4.123924255E-1,3.144361267E0,1.133038834E1,1.176583083E1
8.579981375E0,-4.239184570E-1,3.229833527E0,1.158036850E1,1.202981571E1
8.589961375E0,-3.914360046E-1,3.286116486E0,1.189725952E1,1.234895007E1
8.599942375E0,-3.784130859E-1,3.304079132E0,1.225980560E1,1.270287246E1
8.609923375E0,-3.869453430E-1,3.312910767E0,1.249406845E1,1.293162213E1
8.619904375E0,-3.231779480E-1,3.274440765E0,1.248239273E1,1.290877742E1
8.629885375E0,-2.731819153E-1,3.167413330E0,1.230576004E1,1.270979409E1
8.639866375E0,-2.679428101E-1,3.024610291E0,1.208167603E1,1.245740568E1
8.649847375E0,-2.933898926E-1,2.820734253E0,1.187450684E1,1.220846149E1
8.659827375E0,-3.213816833E-1,2.597847748E0,1.157767410E1,1.186990466E1
8.669808375E0,-2.978805542E-1,2.470762024E0,1.122964783E1,1.150210364E1
8.679789375E0,-2.447410583E-1,2.411335602E0,1.087353836E1,1.114038931E1
8.689770375E0,-1.694476318E-1,2.340083771E0,1.055919205E1,1.081671120E1
8.699751375E0,-1.757345581E-1,2.300116882E0,1.032163605E1,1.057627491E1
8.709732375E0,-2.243833923E-1,2.309846649E0,1.010847931E1,1.037145570E1
8.719713375E0,-2.067201233E-1,2.336940308E0,9.922715607E0,1.019628894E1
8.729693375E0,-1.212478638E-1,2.309996338E0,9.667047272E0,9.939949048E0
8.739674375E0,3.787124634E-2,2.257455597E0,9.392069092E0,9.659632593E0
8.749655375E0,1.760339355E-1,2.241438904E0,9.089248810E0,9.363198184E0
8.759637125E0,2.192939758E-1,2.217638397E0,8.718469849E0,8.998762493E0
8.769618125E0,2.579136658E-1,2.183659058E0,8.443940735E0,8.725538463E0
8.779599125E0,2.143542480E-1,2.127974854E0,8.370293884E0,8.639215499E0
8.789580125E0,1.001417542E-1,2.060165863E0,8.382568359E0,8.632598917E0
8.799560125E0,-3.757186890E-2,2.015259247E0,8.461005249E0,8.697775078E0
8.809541125E0,-1.257385254E-1,1.950144653E0,8.576714630E0,8.796528190E0
8.819522125E0,-1.826202393E-1,1.870510254E0,8.685837708E0,8.886840577E0
8.829503125E0,-2.233355713E-1,1.849553833E0,8.705596619E0,8.902704120E0
8.839484125E0,-2.326162720E-1,1.792223053E0,8.753946075E0,8.938553893E0
8.849465125E0,-2.112107849E-1,1.770667877E0,8.844507751E0,9.022482590E0
8.859446125E0,-1.992356873E-1,1.892813873E0,8.664282532E0,8.870864164E0
8.869426125E0,-1.528321838E-1,2.020648041E0,8.362510071E0,8.604530834E0
8.879407125E0,-9.744735718E-2,2.105072479E0,8.103997650E0,8.373506078E0
8.889388125E0,-7.679031372E-2,2.215692444E0,7.933951263E0,8.237886404E0
8.899369125E0,-1.004411316E-1,2.377206573E0,7.747289429E0,8.104424286E0
8.909350125E0,-1.187031555E-1,2.560126190E0,7.578290863E0,7.999926809E0
8.919331125E0,-1.522334290E-1,2.713257751E0,7.431446228E0,7.912732504E0
8.929312125E0,-2.233355713E-1,2.849923553E0,7.413932648E0,7.945963777E0
8.939292125E0,-2.805166626E-1,2.975213013E0,7.510481873E0,8.083187492E0
8.949273125E0,-3.345542908E-1,3.098406830E0,7.605833588E0,8.219535025E0
8.959254125E0,-2.975811768E-1,3.224893799E0,7.600893860E0,8.262087027E0
8.969235125E0,-2.418969727E-1,3.271297302E0,7.736661530E0,8.403322665E0
8.979216125E0,-2.375559998E-1,3.301085358E0,7.960446167E0,8.621038254E0
8.989197125E0,-2.061213684E-1,3.305576019E0,8.249195709E0,8.889237801E0
8.999178125E0,-1.805245972E-1,3.315006409E0,8.451574860E0,9.080251881E0
9.009158125E0,-1.326242065E-1,3.330873413E0,8.617130585E0,9.239439723E0
9.019139125E0,-1.161584473E-1,3.342399445E0,8.766819305E0,9.383083052E0
9.029120125E0,-1.679507446E-1,3.350931702E0,8.936865692E0,9.545916358E0
9.039101125E0,-2.082170105E-1,3.367996216E0,9.145980835E0,9.748626481E0
9.049082125E0,-2.580633545E-1,3.389551392E0,9.350305939E0,9.949064101E0
9.059063125E0,-3.643423462E-1,3.415447540E0,9.518855438E0,1.011961640E1
9.069044125E0,-4.870870972E-1,3.428620148E0,9.760153656E0,1.035631640E1
9.079024125E0,-5.227130127E-1,3.426823883E0,9.941576385E0,1.052859401E1
9.089005125E0,-5.502557373E-1,3.405568085E0,1.013617172E1,1.070713092E1
9.098986125E0,-5.780978394E-1,3.362457733E0,1.036100418E1,1.090828707E1
9.108967125E0,-5.809419250E-1,3.312162323E0,1.053838531E1,1.106189305E1
9.118948125E0,-5.722599792E-1,3.249143372E0,1.065214874E1,1.115135359E1
9.128929125E0,-5.203179932E-1,3.165018311E0,1.077324692E1,1.124059255E1
9.138910125E0,-5.197192383E-1,3.154390411E0,1.075393707E1,1.121906634E1
9.148890125E0,-5.619314575E-1,3.213816833E0,1.062191162E1,1.111167819E1
9.158871125E0,-5.780978394E-1,3.237018585E0,1.081426163E1,1.130312970E1
9.168852125E0,-5.388793945E-1,3.258274384E0,1.115046249E1,1.162925435E1
9.178833125E0,-5.694158936E-1,3.385958862E0,1.131616791E1,1.182559123E1
9.188814125E0,-6.909631348E-1,3.498674469E0,1.143232635E1,1.197565192E1
9.198795125E0,-7.884104919E-1,3.469634857E0,1.173320068E1,1.226083013E1
9.208776125E0,-8.930429077E-1,3.317251740E0,1.188797882E1,1.237439797E1
9.218756125E0,-9.636959839E-1,3.125051422E0,1.186582489E1,1.230822719E1
9.228737125E0,-9.437873840E-1,2.901266785E0,1.168589905E1,1.207759579E1
9.238718125E0,-8.363108826E-1,2.631677399E0,1.143157791E1,1.176036204E1
9.248699125E0,-6.686595154E-1,2.410886536E0,1.109717331E1,1.137570811E1
9.258680125E0,-5.466632080E-1,2.284399567E0,1.070049820E1,1.095527196E1
9.268661125E0,-4.215234375E-1,2.197280731E0,1.031100815E1,1.055095321E1
9.278642125E0,-4.201762390E-1,2.188449097E0,9.971214752E0,1.021719047E1
9.288622125E0,-5.554948425E-1,2.223027191E0,9.694589996E0,9.961701642E0
9.298603125E0,-6.988966370E-1,2.262245636E0,9.487121429E0,9.778122767E0
9.308584125E0,-7.467970276E-1,2.300865326E0,9.287137299E0,9.597010277E0
9.318565125E0,-7.071295166E-1,2.359842682E0,9.037905579E0,9.367637209E0
9.328546125E0,-6.334826660E-1,2.414329376E0,8.773854675E0,9.121996080E0
9.338527125E0,-5.679190063E-1,2.440375214E0,8.594078522E0,8.951879625E0
9.348508125E0,-5.111869812E-1,2.433190155E0,8.425529022E0,8.784717740E0
9.358489125E0,-4.670288086E-1,2.403851166E0,8.310418396E0,8.663698416E0
9.368469125E0,-4.819976807E-1,2.368075562E0,8.297844543E0,8.642588021E0
9.378450125E0,-5.306465149E-1,2.343077545E0,8.313412170E0,8.653578452E0
9.388431125E0,-5.447172546E-1,2.337838440E0,8.311466217E0,8.651166172E0
9.398412125E0,-5.324427795E-1,2.307451630E0,8.300538940E0,8.631730709E0
9.408393125E0,-5.004093933E-1,2.245181122E0,8.295000458E0,8.608035805E0
9.418374125E0,-4.797523499E-1,2.164798279E0,8.231382751E0,8.524797705E0
9.428355125E0,-4.418811035E-1,2.110461273E0,8.146359558E0,8.426890277E0
9.438336125E0,-3.902384949E-1,2.089355164E0,8.087980957E0,8.362602887E0
9.448316125E0,-2.698887634E-1,2.093396759E0,7.962242432E0,8.237260132E0
9.458297125E0,-2.300715637E-1,2.118544464E0,7.852969666E0,8.136970944E0
9.468278125E0,-2.077679443E-1,2.137105865E0,7.823930054E0,8.113215792E0
9.478259125E0,-1.959425354E-1,2.211650848E0,7.789052582E0,8.099329174E0
9.488240125E0,-1.872605896E-1,2.305056610E0,7.656428375E0,7.998077767E0
9.498221125E0,-1.761836243E-1,2.346370697E0,7.654632111E0,8.008113939E0
9.508202125E0,-1.939965820E-1,2.387834473E0,7.712711334E0,8.076218439E0
9.518182125E0,-1.853146362E-1,2.444416809E0,7.696844330E0,8.077804633E0
9.528163125E0,-1.872605896E-1,2.524350586E0,7.717201996E0,8.121737441E0
9.538144125E0,-1.821711731E-1,2.613565063E0,7.755372620E0,8.185946075E0
9.548125125E0,-1.781295776E-1,2.720742188E0,7.772886200E0,8.237228179E0
9.558106125E0,-2.231858826E-1,2.847977600E0,7.842790833E0,8.346865064E0
9.568087125E0,-2.573149109E-1,2.970422974E0,7.956254883E0,8.496564916E0
9.578068125E0,-2.553689575E-1,3.086431732E0,8.067323914E0,8.641353440E0
9.588048125E0,-2.372566223E-1,3.179987183E0,8.286468201E0,8.878860537E0
9.598029125E0,-2.323168945E-1,3.248394928E0,8.638835449E0,9.232308415E0
9.608010125E0,-1.960922241E-1,3.318598938E0,8.906778259E0,9.506957980E0
9.617991125E0,-1.622625732E-1,3.373085632E0,9.154662781E0,9.757657837E0
9.627972125E0,-1.112187195E-1,3.368295593E0,9.427096252E0,1.001138994E1
9.637953125E0,-4.969665527E-2,3.354823608E0,9.660910034E0,1.022694939E1
9.647934125E0,-1.601669312E-2,3.294948120E0,9.992769928E0,1.052199556E1
9.657915125E0,-5.763015747E-2,3.225642242E0,1.041055115E1,1.089897538E1
9.667895125E0,-9.834548950E-2,3.191962280E0,1.067684738E1,1.114420769E1
9.677876125E0,-1.121168518E-1,3.099604340E0,1.091350525E1,1.134569143E1
9.687857125E0,-1.595681763E-1,3.045417023E0,1.116273697E1,1.157180727E1
9.697838125E0,-1.368154907E-1,3.032843170E0,1.137200180E1,1.177027107E1
9.707819125E0,-2.784210205E-2,3.020868073E0,1.146256348E1,1.185397741E1
9.717800125E0,6.930587769E-2,3.045716400E0,1.149055527E1,1.188755871E1
9.727781125E0,7.394622803E-2,3.062780914E0,1.164009430E1,1.203652318E1
9.737762125E0,-1.092727661E-2,3.002606049E0,1.182525925E1,1.220051305E1
9.747742125E0,-1.001417542E-1,2.961591339E0,1.193468170E1,1.229705977E1
9.757723375E0,-1.013392639E-1,2.988535309E0,1.179621964E1,1.216932252E1
9.767704375E0,-9.580078125E-3,2.976111145E0,1.153441406E1,1.191218020E1
9.777685375E0,8.816665649E-2,2.847079468E0,1.132305359E1,1.167583733E1
9.787666375E0,1.148112488E-1,2.632126465E0,1.118803436E1,1.149405865E1
9.797647375E0,7.170089722E-2,2.469564514E0,1.105825424E1,1.133088155E1
9.807628375E0,3.876937866E-2,2.387984161E0,1.092113937E1,1.117923328E1
9.817609375E0,8.876541138E-2,2.276016998E0,1.084943848E1,1.108595724E1
9.827589375E0,2.059716797E-1,2.165846100E0,1.078028229E1,1.099762701E1
9.837570375E0,3.236270142E-1,2.080074463E0,1.066502197E1,1.087079288E1
9.847551375E0,4.005670166E-1,1.987716522E0,1.063717987E1,1.082871491E1
9.857532375E0,4.897814941E-1,1.899400177E0,1.053943314E1,1.072041313E1
9.867513375E0,6.012995911E-1,1.813628540E0,1.034364029E1,1.051863604E1
9.877494375E0,7.340734863E-1,1.746567993E0,1.025412643E1,1.042767820E1
9.887475375E0,7.122189331E-1,1.758992157E0,1.001462448E1,1.019284125E1
9.897456375E0,7.307803345E-1,1.794618073E0,9.706265717E0,9.897792081E0
9.907436375E0,7.896080017E-1,1.803449707E0,9.540709991E0,9.741717445E0
9.917417375E0,8.202941895E-1,1.819017334E0,9.371861115E0,9.581935471E0
9.927398375E0,8.045768738E-1,1.866768036E0,9.241332550E0,9.462261577E0
9.937379375E0,7.523355103E-1,1.908531189E0,9.134155426E0,9.361692975E0
9.947360375E0,6.541397095E-1,1.946402435E0,9.016500092E0,9.247359358E0
9.957341375E0,5.532495117E-1,1.998344421E0,8.913065186E0,9.151076245E0
9.967322375E0,4.460723877E-1,2.096989288E0,8.794062653E0,9.051623202E0
9.977302375E0,4.240681458E-1,2.195634155E0,8.543633423E0,8.831439022E0
9.987283375E0,4.288581848E-1,2.292482758E0,8.241262207E0,8.564916771E0
9.997264375E0,3.917353821E-1,2.393672333E0,7.954308929E0,8.315897690E0
1.000724538E1,2.899470520E-1,2.521955566E0,7.715256042E0,8.122161349E0
1.001722637E1,2.124082947E-1,2.673739929E0,7.507338409E0,7.972084576E0
1.002720737E1,1.583706665E-1,2.811902618E0,7.385491791E0,7.904262559E0
1.003718837E1,1.715432739E-1,2.944077759E0,7.272476807E0,7.847670982E0
1.004716938E1,1.851649475E-1,3.069816284E0,7.179071045E0,7.810065246E0
1.005715037E1,1.516346741E-1,3.170856171E0,7.161557465E0,7.833596061E0
1.006713037E1,8.337661743E-2,3.262166290E0,7.160060577E0,7.868617924E0
1.007711137E1,-3.577560425E-2,3.336411896E0,7.159611511E0,7.898921523E0
1.008709237E1,-1.565744019E-1,3.383863220E0,7.260651398E0,8.011997538E0
1.009707338E1,-1.922003174E-1,3.406466217E0,7.413483582E0,8.160924694E0
1.010705437E1,-1.887574768E-1,3.400029602E0,7.587571564E0,8.316674390E0
1.011703537E1,-1.953437805E-1,3.397484894E0,7.726482697E0,8.442724540E0
1.012701638E1,-1.519340515E-1,3.403921509E0,7.923473053E0,8.625032801E0
1.013699737E1,-7.349716187E-2,3.390449524E0,8.154742126E0,8.831781754E0
1.014697737E1,-6.227050781E-2,3.408412170E0,8.336164856E0,9.006264245E0
1.015695837E1,-7.993377686E-2,3.437451782E0,8.650960236E0,9.309220008E0
1.016693937E1,-7.155120850E-2,3.459306335E0,8.809031525E0,9.464193378E0
1.017692038E1,-5.059478760E-2,3.501668243E0,8.934919739E0,9.596719807E0
1.018690137E1,-8.741821289E-2,3.529660034E0,9.081614685E0,9.743811738E0
1.019688237E1,-1.185534668E-1,3.561394043E0,9.206904144E0,9.872419479E0
1.020686338E1,-1.523831177E-1,3.599115601E0,9.264384613E0,9.940104425E0
1.021684437E1,-1.772314453E-1,3.585643616E0,9.360185394E0,1.002503475E1
1.022682438E1,-1.775308228E-1,3.578458557E0,9.550439758E0,1.020038148E1
1.023680537E1,-2.300715637E-1,3.599115601E0,9.768087158E0,1.041259299E1
1.024678637E1,-2.650987244E-1,3.577111359E0,9.983189850E0,1.060801973E1
1.025676738E1,-2.248324585E-1,3.548520813E0,1.018781433E1,1.079046387E1
1.026674837E1,-2.177970886E-1,3.491339722E0,1.038585251E1,1.095914326E1
1.027672937E1,-2.643502808E-1,3.408861237E0,1.059915894E1,1.113698281E1
1.028671038E1,-2.459385681E-1,3.379222870E0,1.059466827E1,1.112324722E1
1.029669137E1,-1.721420288E-1,3.301983490E0,1.071157516E1,1.121028859E1
1.030667138E1,-1.119671631E-1,3.191064148E0,1.107292374E1,1.152410808E1
1.031665237E1,-1.055305481E-1,3.159180450E0,1.137634277E1,1.180731691E1
1.032663337E1,-1.531315613E-1,3.193159790E0,1.156659714E1,1.200024533E1
1.033661438E1,-2.466870117E-1,3.156935120E0,1.178798676E1,1.220588897E1
1.034659537E1,-3.525169373E-1,2.991080017E0,1.199575470E1,1.236806204E1
1.035657637E1,-4.665797424E-1,2.794239349E0,1.202584213E1,1.235501312E1
1.036655738E1,-5.878276062E-1,2.563419342E0,1.195384186E1,1.223973019E1
1.037653837E1,-6.303392029E-1,2.303859100E0,1.165611099E1,1.189831995E1
1.038651937E1,-6.261479187E-1,2.110610962E0,1.121557709E1,1.142960670E1
1.039649937E1,-6.004014587E-1,1.993105316E0,1.077294754E1,1.097220805E1
1.040648037E1,-5.530998230E-1,1.854643250E0,1.035696259E1,1.053623723E1
1.041646138E1,-5.456153870E-1,1.771715698E0,1.002106110E1,1.019109112E1
1.042644237E1,-6.879693604E-1,1.808090057E0,9.824819183E0,1.001346910E1
1.043642337E1,-8.740324402E-1,1.915416870E0,9.716743927E0,9.942226463E0
1.044640437E1,-9.903405762E-1,1.998045044E0,9.667945404E0,9.921800582E0
1.045638538E1,-1.016985168E0,2.038760376E0,9.620943146E0,9.887029368E0
1.046636637E1,-9.276210022E-1,2.091001740E0,9.585766296E0,9.854931988E0
1.047634637E1,-7.908055115E-1,2.116149445E0,9.524244232E0,9.788497843E0
1.048632737E1,-5.915698242E-1,2.096240845E0,9.456435242E0,9.704037717E0
1.049630837E1,-3.939807129E-1,2.042652283E0,9.361682281E0,9.590033592E0
1.050628938E1,-2.619552612E-1,1.989812164E0,9.241033173E0,9.456461659E0
1.051627037E1,-1.612147522E-1,1.972897339E0,9.161548462E0,9.372954941E0
1.052625137E1,-1.103205872E-1,1.986369324E0,9.076076202E0,9.291554927E0
1.053623238E1,-9.190887451E-2,1.979783020E0,8.929530945E0,9.146830650E0
1.054621337E1,-8.457412720E-2,1.954335938E0,8.809630280E0,9.024198989E0
1.055619337E1,-6.706054688E-2,1.954785004E0,8.663534088E0,8.881582315E0
1.056617437E1,-7.095245361E-2,1.958227844E0,8.508306885E0,8.731035253E0
1.057615537E1,-4.894821167E-2,1.959425354E0,8.272846527E0,8.501866460E0
1.058613638E1,-1.661544800E-2,1.954036560E0,8.024213562E0,8.258724977E0
1.059611737E1,-8.981323242E-3,1.997146912E0,7.774383087E0,8.026811873E0
1.060609837E1,-1.032852173E-2,2.033670959E0,7.544161835E0,7.813469270E0
1.061607938E1,-2.754272461E-2,2.092199249E0,7.409741364E0,7.699501502E0
1.062606037E1,-5.089416504E-2,2.183659058E0,7.264094238E0,7.585382139E0
1.063604137E1,-6.316864014E-2,2.246079254E0,7.217990112E0,7.559645729E0
1.064602137E1,-5.553451538E-2,2.303410034E0,7.295678558E0,7.650863186E0
1.065600237E1,-1.212478638E-2,2.388882294E0,7.346123657E0,7.724793746E0
1.066598338E1,1.796264648E-2,2.478096771E0,7.472610626E0,7.872813718E0
1.067596437E1,4.311035156E-2,2.584525452E0,7.488926697E0,7.922477730E0
1.068594537E1,3.308120728E-2,2.671793976E0,7.546257477E0,8.005346921E0
1.069592638E1,-0.000000000E0,2.701432343E0,7.695646820E0,8.156023337E0
1.070590737E1,-2.829116821E-2,2.732567596E0,7.929011536E0,8.386712705E0
1.071588837E1,-6.331832886E-2,2.794538727E0,8.198002167E0,8.661448807E0
1.072586937E1,-1.631607056E-2,2.802472229E0,8.359216919E0,8.816497281E0
1.073584937E1,-4.191284180E-2,2.787054291E0,8.575367432E0,9.017003654E0
1.074583038E1,-1.115180969E-1,2.780467987E0,8.907526703E0,9.332066785E0
1.075581137E1,-1.748364258E-1,2.796634369E0,9.214987335E0,9.631600239E0
1.076579200E1,-2.288740540E-1,2.799029388E0,9.581575012E0,9.984664670E0
1.077577300E1,-2.999761963E-1,2.784210205E0,9.993368683E0,1.037830573E1
1.078575400E1,-3.225791931E-1,2.775228882E0,1.033181488E1,1.070291322E1
1.079573500E1,-2.911445618E-1,2.719993744E0,1.059272232E1,1.094024210E1
1.080571600E1,-2.179467773E-1,2.677482147E0,1.076681030E1,1.109687413E1
1.081569700E1,-1.429527283E-1,2.622696075E0,1.102068237E1,1.132936054E1
1.082567700E1,-1.210981750E-1,2.630779266E0,1.134071686E1,1.164248784E1
1.083565800E1,-7.679031372E-2,2.755170593E0,1.152947433E1,1.185435111E1
1.084563900E1,5.538482666E-3,2.896925812E0,1.167107986E1,1.202523659E1
1.085562000E1,3.682342529E-2,2.934797058E0,1.184486847E1,1.220308563E1
1.086560100E1,1.437011719E-2,2.860701141E0,1.212014603E1,1.245318261E1
1.087558200E1,-2.095642090E-3,2.776426392E0,1.233435059E1,1.264297245E1
1.088556300E1,2.859054565E-2,2.764900360E0,1.233075806E1,1.263697296E1
1.089554400E1,7.095245361E-2,2.724634094E0,1.218017120E1,1.248139558E1
1.090552400E1,7.903564453E-2,2.537373505E0,1.209125610E1,1.235487698E1
1.091550500E1,4.161346436E-2,2.258353729E0,1.197869019E1,1.218978719E1
1.092548600E1,-3.637435913E-2,1.960922241E0,1.179083084E1,1.195283360E1
1.093546700E1,-1.040336609E-1,1.771715698E0,1.150477570E1,1.164086179E1
1.094544800E1,-7.783813477E-2,1.672621765E0,1.118893250E1,1.131352875E1
1.095542900E1,-2.903961182E-2,1.564995575E0,1.095212494E1,1.106341245E1
1.096541000E1,2.215393066E-2,1.484912109E0,1.074555450E1,1.084769083E1
1.097539100E1,8.981323242E-2,1.469344482E0,1.057550812E1,1.067747215E1
1.098537200E1,1.559756470E-1,1.516346741E0,1.043450134E1,1.054525742E1
1.099535200E1,2.284249878E-1,1.561253357E0,1.033286270E1,1.045264281E1
1.100533300E1,3.192860413E-1,1.642085266E0,1.005938141E1,1.019752626E1
1.101531400E1,4.234693909E-1,1.720971222E0,9.720635834E0,9.880882009E0
1.102529500E1,5.040019226E-1,1.772464142E0,9.447453918E0,9.625488695E0
1.103527600E1,5.526507568E-1,1.793869629E0,9.266629944E0,9.454830597E0
1.104525700E1,6.042933655E-1,1.783241730E0,9.217232666E0,9.407576710E0
1.105523800E1,6.462062073E-1,1.755549316E0,9.212742004E0,9.400752688E0
1.106521900E1,6.882687378E-1,1.690734100E0,9.236243134E0,9.414907481E0
1.107520000E1,6.917115784E-1,1.664837952E0,9.131161652E0,9.307430549E0
1.108518000E1,6.791377258E-1,1.653760986E0,8.981323242E0,9.157528085E0
1.109516100E1,6.108796692E-1,1.686542816E0,8.948990479E0,9.126994644E0
1.110514200E1,5.679190063E-1,1.757644958E0,8.629554749E0,8.825024813E0
1.111512300E1,5.294490051E-1,1.802551575E0,8.300838318E0,8.510782879E0
1.112510400E1,4.710704041E-1,1.867815857E0,8.090226288E0,8.316393737E0
1.113508500E1,3.498225403E-1,1.974843292E0,7.876021729E0,8.127367354E0
1.114506600E1,2.231858826E-1,2.050136719E0,7.674091644E0,7.946354829E0
1.115504700E1,1.285826111E-1,2.179467773E0,7.480394440E0,7.792490888E0
1.116502800E1,9.654922485E-2,2.298320618E0,7.280110931E0,7.634894537E0
1.117500800E1,1.184037781E-1,2.379601593E0,7.166497192E0,7.552165597E0
1.118498900E1,1.146615601E-1,2.438728638E0,7.172784119E0,7.576897561E0
1.119497000E1,1.173559570E-1,2.549797668E0,7.153025208E0,7.594801524E0
1.120495100E1,1.718426514E-1,2.671943665E0,7.232060852E0,7.711777811E0
1.121493200E1,2.173480225E-1,2.776426392E0,7.360044708E0,7.869310121E0
1.122491300E1,1.685494995E-1,2.892884216E0,7.477550354E0,8.019410659E0
1.123489400E1,9.160949707E-2,3.031196594E0,7.682174835E0,8.259077145E0
1.124487500E1,7.993377686E-2,3.120411072E0,7.878716125E0,8.474521960E0
1.125485600E1,1.145118713E-1,3.178340607E0,8.050409088E0,8.655867863E0
1.126483600E1,1.288819885E-1,3.195854187E0,8.203840027E0,8.805287374E0
1.127481700E1,1.098715210E-1,3.167862396E0,8.546627197E0,9.115495618E0
1.128479800E1,5.239105225E-2,3.146157532E0,8.817713470E0,9.362324652E0
1.129477900E1,-8.831634521E-3,3.173101501E0,8.939260712E0,9.485727869E0
1.130476000E1,-9.340576172E-2,3.162473602E0,9.073082428E0,9.608891126E0
1.131474100E1,-2.085163879E-1,3.133433990E0,9.317524109E0,9.832504420E0
1.132472200E1,-3.579057312E-1,3.158282318E0,9.511670380E0,1.002869469E1
1.133470300E1,-4.411326599E-1,3.152743835E0,9.671837311E0,1.018228013E1
1.134468400E1,-5.004093933E-1,3.147355042E0,9.907447357E0,1.040738999E1
1.135466400E1,-5.818400574E-1,3.135080566E0,1.019005966E1,1.067729291E1
1.136464500E1,-6.629713440E-1,3.120560760E0,1.056607773E1,1.103718393E1
1.137462600E1,-7.164102173E-1,3.119213562E0,1.092518097E1,1.138430130E1
1.138460700E1,-7.054829407E-1,3.106939087E0,1.123758133E1,1.168049703E1
1.139458800E1,-6.484515381E-1,3.121907959E0,1.123862915E1,1.168219089E1
1.140456900E1,-6.319857788E-1,3.151546326E0,1.119237534E1,1.164478063E1
1.141455000E1,-6.515950012E-1,3.203638000E0,1.125494522E1,1.172013927E1
1.142453100E1,-6.605763245E-1,3.226540375E0,1.144040955E1,1.190503652E1
1.143451200E1,-6.979985046E-1,3.279829559E0,1.163470551E1,1.210829699E1
1.144449300E1,-8.262817383E-1,3.397335205E0,1.186387894E1,1.236835686E1
1.145447300E1,-9.306147766E-1,3.399430847E0,1.207329346E1,1.257722501E1
1.146445400E1,-9.979747009E-1,3.209775238E0,1.228734833E1,1.273882018E1
1.147443500E1,-9.961784363E-1,2.964884491E0,1.225172241E1,1.264466740E1
1.148441600E1,-9.048683167E-1,2.700234833E0,1.205084015E1,1.238276234E1
1.149439700E1,-7.204518127E-1,2.471061401E0,1.173814041E1,1.201703522E1
1.150437800E1,-5.260061646E-1,2.299518127E0,1.114148117E1,1.138846209E1
1.151435900E1,-3.604504395E-1,2.107916565E0,1.060724213E1,1.082066644E1
1.152434000E1,-3.403921509E-1,1.983824615E0,1.016581009E1,1.036316176E1
1.153432100E1,-5.312452698E-1,1.913620605E0,9.829908600E0,1.002852274E1
1.154430100E1,-8.036787415E-1,1.955533447E0,9.586814117E0,9.817179611E0
1.155428200E1,-1.032103729E0,2.034269714E0,9.272318115E0,9.548789170E0
1.156426300E1,-1.205592957E0,2.049238586E0,9.093889160E0,9.399556012E0
1.157424400E1,-1.351090393E0,2.018851776E0,8.998387756E0,9.320525198E0
1.158422500E1,-1.421294403E0,2.061063995E0,8.799451447E0,9.148683421E0
1.159420600E1,-1.364263000E0,2.055675201E0,8.650062103E0,8.995031321E0
1.160418700E1,-1.278940430E0,1.980980530E0,8.558901672E0,8.877768319E0
1.161416800E1,-1.217418365E0,1.882784729E0,8.532257080E0,8.821927040E0
1.162414900E1,-1.170565796E0,1.827848969E0,8.524323578E0,8.796325858E0
1.163412900E1,-1.046174469E0,1.809886322E0,8.437953186E0,8.693056050E0
1.164411000E1,-8.813671875E-1,1.800156555E0,8.366851044E0,8.603578798E0
1.165409100E1,-7.679031372E-1,1.811083832E0,8.261769562E0,8.492734316E0
1.166407200E1,-7.330256653E-1,1.829196167E0,8.191266174E0,8.424970432E0
1.167405300E1,-6.764433289E-1,1.834285583E0,8.132438507E0,8.364133861E0
1.168403400E1,-6.048921204E-1,1.846260681E0,8.165819092E0,8.393758063E0
1.169401500E1,-5.327421570E-1,1.899400177E0,8.102800140E0,8.339478722E0
1.170399600E1,-4.680766296E-1,1.927092590E0,7.971074066E0,8.214061319E0
1.171397700E1,-4.828958130E-1,1.930086365E0,7.873776398E0,8.121254614E0
1.172395800E1,-5.563929749E-1,1.978286133E0,7.798932037E0,8.065142906E0
1.173393800E1,-6.215075684E-1,2.061513062E0,7.673193512E0,7.969567519E0
1.174391900E1,-6.116281128E-1,2.119592285E0,7.618706818E0,7.931674097E0
1.175390000E1,-5.598358154E-1,2.170037384E0,7.652835846E0,7.974231930E0
1.176388454E1,-4.598437500E-1,2.290985870E0,7.611970825E0,7.962548108E0
1.177386554E1,-3.350033569E-1,2.346071320E0,7.578889618E0,7.940771104E0
1.178384654E1,-2.800675964E-1,2.361638947E0,7.715854797E0,8.074044317E0
1.179382754E1,-2.656974792E-1,2.424508209E0,7.799979858E0,8.172424426E0
1.180380854E1,-2.097138977E-1,2.481689301E0,7.871231689E0,8.255849442E0
1.181378954E1,-1.221459961E-1,2.501448212E0,8.021818542E0,8.403673930E0
1.182376954E1,-8.906478882E-2,2.529589691E0,8.237669678E0,8.617769912E0
1.183375054E1,-1.062789917E-2,2.584226074E0,8.441845093E0,8.828538153E0
1.184373154E1,1.122665405E-1,2.615960083E0,8.627758484E0,9.016322276E0
1.185371254E1,1.598675537E-1,2.675536194E0,8.890911255E0,9.286137760E0
1.186369354E1,1.571731567E-1,2.711162109E0,9.256750488E0,9.646892400E0
1.187367454E1,1.405577087E-1,2.745141449E0,9.609716492E0,9.995109259E0
1.188365554E1,1.200503540E-1,2.771336975E0,9.958191833E0,1.033732583E1
1.189363654E1,1.203497314E-1,2.743644562E0,1.041159897E1,1.076770461E1
1.190361754E1,7.409591675E-2,2.663561096E0,1.084883972E1,1.117127438E1
1.191359854E1,8.681945801E-3,2.615810394E0,1.122710312E1,1.152780915E1
1.192357854E1,2.888992310E-2,2.608775024E0,1.142439285E1,1.171850220E1
1.193355954E1,8.143066406E-2,2.579136658E0,1.157183624E1,1.185605208E1
1.194354054E1,2.109114075E-1,2.554587708E0,1.168934189E1,1.196708468E1
1.195352154E1,2.595602417E-1,2.528841248E0,1.187121368E1,1.214035106E1
1.196350254E1,2.371069336E-1,2.500101013E0,1.213182175E1,1.238902029E1
1.197348354E1,1.339714050E-1,2.535128174E0,1.228839615E1,1.254788839E1
1.198346454E1,6.331832886E-2,2.562670898E0,1.223720261E1,1.250281644E1
1.199344554E1,-1.496887207E-3,2.616409149E0,1.210353058E1,1.238309539E1
1.200342654E1,-2.589614868E-2,2.637365570E0,1.181148788E1,1.210238050E1
1.201340654E1,-9.490264893E-2,2.532733154E0,1.160521683E1,1.187875420E1
1.202338754E1,-2.171983337E-1,2.332749023E0,1.144280457E1,1.168018277E1
1.203336854E1,-3.725752258E-1,2.170187073E0,1.122994720E1,1.144378602E1
1.204334954E1,-4.544549561E-1,1.991608429E0,1.103654938E1,1.122401246E1
1.205333054E1,-4.565505981E-1,1.847009125E0,1.087368805E1,1.103888459E1
1.206331154E1,-4.129911804E-1,1.697919159E0,1.065394501E1,1.079629730E1
1.207329254E1,-3.601510620E-1,1.575324097E0,1.042028091E1,1.054483803E1
1.208327354E1,-2.207908630E-1,1.534010010E0,1.029289581E1,1.040892115E1
1.209325454E1,-1.122665405E-2,1.521885223E0,1.018242554E1,1.029553546E1
1.210323554E1,2.098635864E-1,1.552122345E0,9.914183350E0,1.003713893E1
1.211321554E1,3.790118408E-1,1.589394836E0,9.726623383E0,9.862911758E0
1.212319654E1,5.542973328E-1,1.656754761E0,9.521250458E0,9.680201039E0
1.213317754E1,6.298901367E-1,1.732946320E0,9.231752472E0,9.414091471E0
1.214315854E1,6.595285034E-1,1.778601379E0,9.025481415E0,9.222673988E0
1.215313954E1,6.426136780E-1,1.801354065E0,8.945397949E0,9.147566522E0
1.216312054E1,5.911207581E-1,1.806742859E0,8.892707520E0,9.093623620E0
1.217310154E1,5.474116516E-1,1.814826050E0,8.834328918E0,9.035409263E0
1.218308254E1,4.984634399E-1,1.788929901E0,8.815767517E0,9.009244858E0
1.219306354E1,4.605921936E-1,1.782044220E0,8.683742065E0,8.876666211E0
1.220304354E1,4.113446045E-1,1.775008850E0,8.526718597E0,8.719219623E0
1.221302454E1,3.736230469E-1,1.812880096E0,8.380323029E0,8.582304031E0
1.222300554E1,3.408412170E-1,1.863774261E0,8.160579987E0,8.377642446E0
1.223298654E1,2.975811768E-1,1.931134186E0,7.900720367E0,8.138747823E0
1.224296754E1,2.796185303E-1,2.019899597E0,7.594307556E0,7.863312798E0
1.225294854E1,2.158511353E-1,2.127226410E0,7.414232025E0,7.716380008E0
1.226292954E1,1.303788757E-1,2.205363922E0,7.305258636E0,7.632000552E0
1.227291054E1,2.065704346E-2,2.314936066E0,7.161407776E0,7.526295040E0
1.228289154E1,-2.814147949E-2,2.434537354E0,7.047794037E0,7.456484752E0
1.229287254E1,-1.766326904E-2,2.556383972E0,7.003935242E0,7.455905034E0
1.230285254E1,-2.290237427E-2,2.645748138E0,7.038363647E0,7.519246675E0
1.231283354E1,-1.125659180E-1,2.725981293E0,7.165898438E0,7.667707970E0
1.232281454E1,-1.818717957E-1,2.771037598E0,7.386689301E0,7.891445086E0
1.233279554E1,-2.191442871E-1,2.845432892E0,7.638166351E0,8.153900770E0
1.234277654E1,-1.770817566E-1,2.922522583E0,7.798183594E0,8.329715695E0
1.235275754E1,-1.395098877E-1,2.912792816E0,8.113278351E0,8.621433210E0
1.236273854E1,-1.417552185E-1,2.905158691E0,8.497678986E0,8.981680784E0
1.237271954E1,-1.438508606E-1,2.885699158E0,8.814570007E0,9.276022699E0
1.238270054E1,-1.324745178E-1,2.849025421E0,9.125772858E0,9.561078684E0
1.239268154E1,-1.158590698E-1,2.825075226E0,9.314081268E0,9.733785658E0
1.240266154E1,-1.874102783E-1,2.796334991E0,9.633966064E0,1.003334013E1
1.241264254E1,-2.252815247E-1,2.813848572E0,9.922565918E0,1.031628857E1
1.242262354E1,-2.776725769E-1,2.819836121E0,1.004007156E1,1.043223920E1
1.243260454E1,-3.806584167E-1,2.828817444E0,1.026101212E1,1.065060931E1
1.244258554E1,-5.370831299E-1,2.907104645E0,1.053943314E1,1.094620329E1
1.245256654E1,-6.376739502E-1,2.922821960E0,1.090182953E1,1.130483982E1
1.246254754E1,-7.069798279E-1,2.908302155E0,1.116632950E1,1.156049118E1
1.247252854E1,-7.300318909E-1,2.947221222E0,1.129521149E1,1.169619006E1
1.248250954E1,-6.685098267E-1,2.981050873E0,1.137888748E1,1.178187803E1
1.249248954E1,-5.933660889E-1,3.005899200E0,1.141840530E1,1.182233027E1
1.250247054E1,-5.499563599E-1,3.054997101E0,1.146361130E1,1.187644068E1
1.251245154E1,-4.873864746E-1,3.086282043E0,1.153576126E1,1.195142127E1
1.252243254E1,-4.110452271E-1,3.053051147E0,1.159384048E1,1.199613340E1
1.253241354E1,-3.649411011E-1,3.021017761E0,1.168110901E1,1.207095845E1
1.254239454E1,-4.213737488E-1,2.971321106E0,1.185968765E1,1.223349893E1
1.255237554E1,-5.528004456E-1,2.880010986E0,1.207673630E1,1.242769533E1
1.256235654E1,-6.619235229E-1,2.725831604E0,1.219005066E1,1.250862246E1
1.257233754E1,-6.873706055E-1,2.484533386E0,1.227327759E1,1.254108158E1
1.258231854E1,-6.935078430E-1,2.204914856E0,1.225935654E1,1.247535271E1
1.259229854E1,-6.372248840E-1,2.002086639E0,1.200054474E1,1.218308173E1
1.260227954E1,-5.287005615E-1,1.925895081E0,1.151899612E1,1.169084547E1
1.261226054E1,-3.231779480E-1,1.839524689E0,1.084135529E1,1.100105811E1
1.262224154E1,-1.767823792E-1,1.742376709E0,1.031879196E1,1.046635544E1
1.263222254E1,-2.926414490E-1,1.726958771E0,9.978250122E0,1.013081937E1
1.264220354E1,-5.667214966E-1,1.831142120E0,9.721683655E0,9.908854011E0
1.265218454E1,-7.458988953E-1,1.888173523E0,9.464069366E0,9.679368440E0
1.266216554E1,-8.394543457E-1,1.928888855E0,9.238787842E0,9.475257073E0
1.267214654E1,-8.719367981E-1,1.994901581E0,9.059460754E0,9.317388865E0
1.268212654E1,-8.144563293E-1,2.036664734E0,8.918154602E0,9.183943807E0
1.269210754E1,-6.971003723E-1,2.020498352E0,8.768765259E0,9.025497586E0
1.270208854E1,-6.351292419E-1,1.910028076E0,8.700656891E0,8.930455013E0
1.271206954E1,-6.195616150E-1,1.818717957E0,8.682394867E0,8.892444671E0
1.272205054E1,-5.716612244E-1,1.766476593E0,8.571924591E0,8.770697082E0
1.273203154E1,-4.704716492E-1,1.722168732E0,8.442892914E0,8.629579913E0
1.274201254E1,-3.870950317E-1,1.715582428E0,8.312813416E0,8.496818964E0
1.275199354E1,-3.429368591E-1,1.708247681E0,8.155789948E0,8.339821671E0
1.276197062E1,-3.365002441E-1,1.673220520E0,8.065976715E0,8.244566677E0
1.277195162E1,-3.588038635E-1,1.686842194E0,7.944279785E0,8.129314738E0
1.278193162E1,-3.784130859E-1,1.722318420E0,7.790699158E0,7.987776322E0
1.279191262E1,-3.953279114E-1,1.742077332E0,7.704927521E0,7.909299949E0
1.280189363E1,-4.297563171E-1,1.799408112E0,7.659871216E0,7.880113393E0
1.281187462E1,-4.405339050E-1,1.888472900E0,7.527845764E0,7.773600316E0
1.282185562E1,-4.474195862E-1,1.959275665E0,7.429051208E0,7.696086491E0
1.283183663E1,-4.679269409E-1,2.042951660E0,7.423063660E0,7.713266572E0
1.284181762E1,-4.938230896E-1,2.111060028E0,7.405250702E0,7.716098343E0
1.285179862E1,-4.864883423E-1,2.143093414E0,7.459288330E0,7.776278202E0
1.286177963E1,-4.150868225E-1,2.194286957E0,7.556735687E0,7.879812597E0
1.287176062E1,-3.150947571E-1,2.260748749E0,7.613018646E0,7.947850182E0
1.288174063E1,-2.107617188E-1,2.303110657E0,7.730075226E0,8.068630751E0
1.289172162E1,-1.440005493E-1,2.375709686E0,7.877219238E0,8.228931620E0
1.290170262E1,-1.240919495E-1,2.453847198E0,8.031099243E0,8.398530820E0
1.291168363E1,-9.565109253E-2,2.510429535E0,8.199948120E0,8.576162006E0
1.292166462E1,-6.346801758E-2,2.614612885E0,8.390352173E0,8.788528791E0
1.293164562E1,-4.400848389E-2,2.691552887E0,8.609945526E0,9.020950928E0
1.294162662E1,-3.098556519E-2,2.745590515E0,8.884774017E0,9.299378298E0
1.295160763E1,-7.978408813E-2,2.828069000E0,9.111402740E0,9.540545041E0
1.296158862E1,-1.483415222E-1,2.906505890E0,9.332492981E0,9.775745851E0
1.297156962E1,-1.851649475E-1,2.921923828E0,9.689500580E0,1.012217103E1
1.298154962E1,-2.508782959E-1,2.887944489E0,1.003782623E1,1.044801985E1
1.299153063E1,-3.439846802E-1,2.861898651E0,1.049437683E1,1.088304803E1
1.300151162E1,-4.225712585E-1,2.779420166E0,1.103011276E1,1.138275584E1
1.301149262E1,-4.571493530E-1,2.750829620E0,1.128757736E1,1.162692788E1
1.302147362E1,-4.406835938E-1,2.688259735E0,1.150417694E1,1.182231067E1
1.303145463E1,-4.129911804E-1,2.637365570E0,1.190369614E1,1.219935410E1
1.304143562E1,-4.167333984E-1,2.638263702E0,1.216834579E1,1.245803923E1
1.305141662E1,-3.257226562E-1,2.583477631E0,1.230695755E1,1.257941398E1
1.306139763E1,-1.962419128E-1,2.523901520E0,1.253478378E1,1.278786121E1
1.307137762E1,-1.122665405E-1,2.473306732E0,1.281036072E1,1.304742088E1
1.308135863E1,-1.131646729E-1,2.476300507E0,1.288834854E1,1.312457232E1
1.309133962E1,-1.004411316E-1,2.454445953E0,1.267953278E1,1.291529887E1
1.310132062E1,-5.628295898E-2,2.320474548E0,1.240156082E1,1.261691249E1
1.311130163E1,-1.136137390E-1,2.134860535E0,1.216101105E1,1.234749883E1
1.312128262E1,-2.317181396E-1,1.923350372E0,1.194665680E1,1.210270956E1
1.313126362E1,-2.962339783E-1,1.719324646E0,1.165431473E1,1.178417938E1
1.314124463E1,-2.812651062E-1,1.629212036E0,1.116288666E1,1.128465686E1
1.315122562E1,-2.016307068E-1,1.588496704E0,1.065723816E1,1.077685956E1
1.316120662E1,-1.001417542E-1,1.560654602E0,1.030666718E1,1.042463714E1
1.317118662E1,-2.993774414E-2,1.581012268E0,1.006057892E1,1.018409271E1
1.318116762E1,2.380050659E-2,1.654509430E0,9.897118835E0,1.003448699E1
1.319114863E1,1.357676697E-1,1.701511688E0,9.702373810E0,9.851377184E0
1.320112962E1,3.179388428E-1,1.722318420E0,9.484726410E0,9.645076512E0
1.321111062E1,4.710704041E-1,1.769919434E0,9.249266052E0,9.428862319E0
1.322109163E1,6.268963623E-1,1.772763519E0,9.037905579E0,9.231436876E0
1.323107262E1,7.128176880E-1,1.737586670E0,8.816665649E0,9.014483328E0
1.324105362E1,7.430548096E-1,1.699116669E0,8.648714905E0,8.845303692E0
1.325103462E1,7.038363647E-1,1.689536591E0,8.513396301E0,8.707918012E0
1.326101563E1,6.933581543E-1,1.679357758E0,8.427175598E0,8.620804868E0
1.327099563E1,6.804849243E-1,1.676813049E0,8.447383575E0,8.639042250E0
1.328097662E1,6.619235229E-1,1.715732117E0,8.450676727E0,8.648457469E0
1.329095762E1,5.879772949E-1,1.756896515E0,8.483308868E0,8.683255842E0
1.330093862E1,4.293072510E-1,1.846410370E0,8.373137970E0,8.585043706E0
1.331091963E1,2.718347168E-1,1.919159088E0,8.198301544E0,8.424322758E0
1.332090062E1,1.758842468E-1,1.977537689E0,7.970325623E0,8.213871262E0
1.333088162E1,1.378633118E-1,2.048190765E0,7.702382813E0,7.971247876E0
1.334086263E1,1.380130005E-1,2.109712830E0,7.426207123E0,7.721300929E0
1.335084362E1,1.314266968E-1,2.144889679E0,7.287295990E0,7.597532992E0
1.336082462E1,8.741821289E-2,2.185455322E0,7.162605286E0,7.489110187E0
1.337080462E1,2.859054565E-2,2.258204041E0,7.057523804E0,7.410057027E0
1.338078562E1,-2.754272461E-2,2.369123383E0,6.958280182E0,7.350589588E0
1.339076663E1,-3.442840576E-2,2.496059418E0,6.898704071E0,7.336457987E0
1.340074762E1,1.392105103E-2,2.584974518E0,6.927294617E0,7.393895980E0
1.341072862E1,5.388793945E-2,2.686014404E0,6.995552673E0,7.493686309E0
1.342070963E1,3.412902832E-2,2.793341217E0,6.978787537E0,7.517140110E0
1.343069062E1,-3.562591553E-2,2.839744720E0,7.177424469E0,7.718862694E0
1.344067162E1,-1.272354126E-1,2.886148224E0,7.489974518E0,8.027811576E0
1.345065263E1,-1.528321838E-1,2.990930328E0,7.641160126E0,8.207091444E0
1.346063362E1,-1.525328064E-1,2.999612274E0,7.892637177E0,8.444800865E0
1.347061363E1,-1.630110168E-1,2.987786865E0,8.268056488E0,8.792849426E0
1.348059462E1,-2.218386841E-1,2.983745270E0,8.669072571E0,9.170865143E0
1.349057562E1,-2.833607483E-1,2.988385620E0,8.979676666E0,9.468122040E0
1.350055663E1,-3.478765869E-1,2.994373169E0,9.257049866E0,9.735515447E0
1.351053762E1,-4.318519592E-1,2.977158966E0,9.580227814E0,1.004145092E1
1.352051862E1,-4.872367859E-1,2.956352234E0,9.869426422E0,1.031421331E1
1.353049962E1,-5.496569824E-1,2.902314606E0,1.025367737E1,1.067068191E1
1.354048063E1,-6.782395935E-1,2.869981842E0,1.078612015E1,1.118200307E1
1.355046162E1,-8.190966797E-1,2.888992310E0,1.121722366E1,1.161220490E1
1.356044162E1,-9.177415466E-1,2.934497681E0,1.162886765E1,1.202846993E1
1.357042262E1,-9.397457886E-1,2.963237915E0,1.186193298E1,1.226251831E1
1.358040362E1,-9.036708069E-1,2.929707642E0,1.199755096E1,1.238309480E1
1.359038463E1,-8.515791321E-1,2.944077759E0,1.198018707E1,1.236598816E1
1.360036562E1,-7.694000244E-1,3.002905426E0,1.190758804E1,1.230447359E1
1.361034662E1,-6.706054688E-1,3.067870331E0,1.203632034E1,1.243923420E1
1.362032763E1,-5.695655823E-1,3.084336090E0,1.229333588E1,1.268714472E1
1.363030862E1,-5.227130127E-1,3.060685272E0,1.258927048E1,1.296652438E1
1.364028962E1,-5.743556213E-1,3.039429474E0,1.280991165E1,1.317808227E1
1.365027063E1,-6.291416931E-1,2.921025696E0,1.298998718E1,1.332921518E1
1.366025162E1,-6.225553894E-1,2.676284637E0,1.312096481E1,1.340558810E1
1.367023163E1,-6.105802917E-1,2.415377197E0,1.293490173E1,1.317264355E1
1.368021262E1,-5.791456604E-1,2.130669250E0,1.257834320E1,1.277066478E1
1.369019362E1,-5.438191223E-1,1.850302277E0,1.206805435E1,1.222118217E1
1.370017463E1,-5.183720398E-1,1.630708923E0,1.143472137E1,1.156204022E1
1.371015562E1,-4.845423889E-1,1.512005768E0,1.077279785E1,1.088917427E1
1.372013662E1,-5.125341797E-1,1.451980591E0,1.032163605E1,1.043585692E1
1.373011763E1,-6.032455444E-1,1.521735535E0,9.914931793E0,1.004915204E1
1.374009862E1,-6.089337158E-1,1.693278809E0,9.539512482E0,9.707743908E0
1.375007962E1,-5.471122742E-1,1.845212860E0,9.242979126E0,9.441229023E0
1.376006038E1,-4.884342957E-1,1.933978271E0,8.964109039E0,9.183359455E0
1.377004037E1,-4.519102478E-1,2.001487885E0,8.739875336E0,8.977505083E0
1.378002138E1,-3.924838257E-1,2.061513062E0,8.527766418E0,8.782179669E0
1.379000237E1,-3.424877930E-1,2.083068237E0,8.338709564E0,8.601775884E0
1.379998337E1,-3.149450684E-1,2.043101349E0,8.212372284E0,8.468560211E0
1.380996438E1,-2.308200073E-1,1.997595978E0,8.233179016E0,8.475193465E0
1.381994537E1,-1.616638184E-1,1.971550140E0,8.134683838E0,8.371751686E0
1.382992637E1,-1.266366577E-1,1.907782745E0,8.008496246E0,8.233570548E0
1.383990738E1,-1.172062683E-1,1.842817841E0,7.951464844E0,8.163057519E0
1.384988837E1,-1.017883301E-1,1.783092041E0,7.910749512E0,8.109854248E0
1.385986838E1,-1.374142456E-1,1.707948303E0,7.877518616E0,8.061716295E0
1.386984937E1,-1.920506287E-1,1.655856628E0,7.830516357E0,8.005980954E0
1.387983037E1,-2.140548706E-1,1.651365967E0,7.787555695E0,7.963595466E0
1.388981138E1,-2.444416809E-1,1.649719391E0,7.741451569E0,7.919052860E0
1.389979237E1,-2.926414490E-1,1.704206085E0,7.701334991E0,7.893067721E0
1.390977337E1,-3.381468201E-1,1.781894531E0,7.691455536E0,7.902403410E0
1.391975437E1,-3.047662354E-1,1.841470642E0,7.658524017E0,7.882695396E0
1.392973538E1,-2.647993469E-1,1.892514496E0,7.646698608E0,7.881860784E0
1.393971637E1,-2.218386841E-1,1.982028351E0,7.622898102E0,7.879481217E0
1.394969737E1,-1.526824951E-1,2.079625397E0,7.652386780E0,7.931404489E0
1.395967737E1,-8.502319336E-2,2.184856567E0,7.740403748E0,8.043300152E0
1.396965837E1,-1.556762695E-2,2.328108673E0,7.821684723E0,8.160826199E0
1.397963938E1,8.816665649E-2,2.474354553E0,7.919581146E0,8.297588164E0
1.398962037E1,1.570234680E-1,2.576891327E0,8.054300995E0,8.457942409E0
1.399960137E1,1.796264648E-1,2.653082886E0,8.155640259E0,8.578203920E0
1.400958238E1,2.010319519E-1,2.725532227E0,8.336613922E0,8.773144901E0
1.401956337E1,1.911524963E-1,2.829565887E0,8.535400543E0,8.994222858E0
1.402954437E1,1.549278259E-1,2.905458069E0,8.743318176E0,9.214732875E0
1.403952538E1,1.648072815E-1,2.946622467E0,8.967551880E0,9.440695532E0
1.404950637E1,1.975891113E-1,2.971171417E0,9.199419708E0,9.669344549E0
1.405948638E1,1.239422607E-1,2.968177643E0,9.490414581E0,9.944516536E0
1.406946737E1,1.481918335E-2,2.940185852E0,9.753267975E0,1.018681249E1
1.407944837E1,-7.005432129E-2,2.895129547E0,9.950408020E0,1.036326698E1
1.408942938E1,-1.950444031E-1,2.909499664E0,1.022613464E1,1.063376981E1
1.409941037E1,-3.423381042E-1,2.877915344E0,1.062460602E1,1.101280369E1
1.410939137E1,-5.096900940E-1,2.822530518E0,1.104014191E1,1.140662947E1
1.411937238E1,-6.065386963E-1,2.830763397E0,1.127994324E1,1.164552403E1
1.412935337E1,-6.216572571E-1,2.811154175E0,1.154893387E1,1.190239132E1
1.413933437E1,-6.240522766E-1,2.818189545E0,1.180071030E1,1.214859651E1
1.414931537E1,-5.204676819E-1,2.820584564E0,1.196866104E1,1.230753554E1
1.415929638E1,-3.529660034E-1,2.818039856E0,1.204245758E1,1.237282176E1
1.416927638E1,-1.959425354E-1,2.809657288E0,1.214664093E1,1.246889945E1
1.417925737E1,-9.729766846E-2,2.739004211E0,1.223750198E1,1.254065651E1
1.418923837E1,-3.338058472E-2,2.671793976E0,1.222058716E1,1.250929046E1
1.419921937E1,-4.909790039E-2,2.681074677E0,1.206595871E1,1.236033703E1
1.420920038E1,-4.415817261E-2,2.572550354E0,1.195264435E1,1.222643334E1
1.421918137E1,-6.182144165E-2,2.366578674E0,1.184711380E1,1.208133361E1
1.422916237E1,-1.146615601E-1,2.195783844E0,1.157752441E1,1.178446798E1
1.423914338E1,-9.684860229E-2,2.031275940E0,1.137289993E1,1.155328155E1
1.424912437E1,-1.362167358E-2,1.927691345E0,1.114851654E1,1.131395601E1
1.425910537E1,5.718109131E-2,1.875599670E0,1.075363770E1,1.091612878E1
1.426908537E1,9.684860229E-2,1.813628540E0,1.044063858E1,1.059743186E1
1.427906637E1,3.098556519E-2,1.810036011E0,1.025756927E1,1.041608938E1
1.428904738E1,-7.095245361E-2,1.890718231E0,9.977950745E0,1.015575456E1
1.429902837E1,-9.714797974E-2,1.958377533E0,9.610914001E0,9.808891285E0
1.430900937E1,-2.424957275E-2,1.951641541E0,9.383387146E0,9.584229081E0
1.431899038E1,5.328918457E-2,1.911674652E0,9.189240875E0,9.386132727E0
1.432897137E1,1.573228455E-1,1.899250488E0,8.987610168E0,9.187439221E0
1.433895237E1,2.683918762E-1,1.815424805E0,8.809630280E0,8.998743639E0
1.434893338E1,3.450325012E-1,1.716181183E0,8.715625763E0,8.889682656E0
1.435891437E1,3.854484558E-1,1.640738068E0,8.613538055E0,8.776880411E0
1.436889438E1,3.608995056E-1,1.567989349E0,8.541837158E0,8.692055056E0
1.437887537E1,3.140469360E-1,1.568737793E0,8.316405945E0,8.468894354E0
1.438885637E1,2.354603577E-1,1.622176666E0,7.918982391E0,8.086852344E0
1.439883738E1,1.877096558E-1,1.710642700E0,7.547005920E0,7.740725530E0
1.440881837E1,4.999603271E-2,1.865271149E0,7.286397858E0,7.521524433E0
1.441879937E1,-1.468446350E-1,2.031126251E0,7.104226685E0,7.390336527E0
1.442878037E1,-3.758683777E-1,2.197879486E0,7.043752441E0,7.388260941E0
1.443876138E1,-5.920188904E-1,2.409239960E0,6.845265198E0,7.280973779E0
1.444874237E1,-7.701484680E-1,2.575095062E0,6.801406403E0,7.313232684E0
1.445872337E1,-9.544152832E-1,2.732866974E0,6.986421661E0,7.562377805E0
1.446870337E1,-9.976753235E-1,2.848426666E0,7.203919373E0,7.810591837E0
1.447868437E1,-9.181906128E-1,2.949616241E0,7.346123657E0,7.969243550E0
1.448866537E1,-7.955955505E-1,2.989882507E0,7.333549805E0,7.959480035E0
1.449864637E1,-6.819818115E-1,2.950963440E0,7.410489807E0,8.005538308E0
1.450862737E1,-6.230044556E-1,2.937790833E0,7.640112305E0,8.209145239E0
1.451860838E1,-5.541476440E-1,2.927013245E0,7.943531342E0,8.483759563E0
1.452858937E1,-4.929249573E-1,2.922821960E0,8.312514038E0,8.825177214E0
1.453857037E1,-4.520599365E-1,2.919229431E0,8.653055878E0,9.143392952E0
1.454855138E1,-4.364923096E-1,2.878813477E0,8.961863708E0,9.423008739E0
1.455853237E1,-3.664379883E-1,2.860102386E0,9.247170410E0,9.686311117E0
1.456851238E1,-3.329077148E-1,2.836451569E0,9.361981659E0,9.787899960E0
1.457849337E1,-3.411405945E-1,2.784060516E0,9.407487030E0,9.816729704E0
1.458847437E1,-3.682342529E-1,2.781665497E0,9.399852905E0,9.809714269E0
1.459845538E1,-4.219725037E-1,2.803669739E0,9.414821777E0,9.832471403E0
1.460843637E1,-5.355862427E-1,2.774330750E0,9.567953339E0,9.976447004E0
1.461841737E1,-7.253915405E-1,2.856060791E0,9.708810425E0,1.014614587E1
1.462839838E1,-8.056246948E-1,2.940036163E0,9.913285217E0,1.037140625E1
1.463837937E1,-8.608598328E-1,2.996618500E0,1.012659164E1,1.059569065E1
1.464836037E1,-9.107061768E-1,3.041674805E0,1.031220566E1,1.078993776E1
1.465834037E1,-9.339079285E-1,3.016527100E0,1.069256470E1,1.114910577E1
1.466832137E1,-8.640032959E-1,2.930755463E0,1.094823303E1,1.136660177E1
1.467830238E1,-7.366181946E-1,2.851570129E0,1.107172623E1,1.145675260E1
1.468828337E1,-6.219566345E-1,2.841690674E0,1.100062408E1,1.137874185E1
1.469826437E1,-5.956114197E-1,3.000660095E0,1.094269455E1,1.136227433E1
1.470824537E1,-5.522016907E-1,3.112178192E0,1.119611755E1,1.163372804E1
1.471822638E1,-5.472619629E-1,3.099754028E0,1.159878021E1,1.201830575E1
1.472820737E1,-6.758445740E-1,3.078049164E0,1.191477310E1,1.232448663E1
1.473818837E1,-8.629554749E-1,3.048859863E0,1.215996323E1,1.256602341E1
1.474816938E1,-9.632469177E-1,2.866539001E0,1.242790604E1,1.279053318E1
1.475814938E1,-9.141490173E-1,2.533930664E0,1.252445526E1,1.281087244E1
1.476813438E1,-8.394543457E-1,2.237696686E0,1.229827560E1,1.252834997E1
1.477811537E1,-7.631130981E-1,1.995350647E0,1.181103882E1,1.200268319E1
1.478809637E1,-6.116281128E-1,1.819316711E0,1.121812180E1,1.138113610E1
1.479807738E1,-4.692741394E-1,1.697619781E0,1.061996567E1,1.076502680E1
1.480805837E1,-5.007087708E-1,1.710043945E0,1.010862900E1,1.026446978E1
1.481803937E1,-6.649172974E-1,1.859582977E0,9.848020935E0,1.004408683E1
1.482802038E1,-8.569679260E-1,2.055076447E0,9.632169800E0,9.886173591E0
1.483800137E1,-1.003513184E0,2.220632172E0,9.471703491E0,9.780154036E0
1.484798237E1,-1.069825287E0,2.356699219E0,9.351204071E0,9.702761201E0
1.485796237E1,-1.067729645E0,2.448458405E0,9.168733521E0,9.549904163E0
1.486794337E1,-1.005608826E0,2.481539612E0,9.053622894E0,9.441259210E0
1.487792438E1,-9.355545044E-1,2.464774475E0,8.952433319E0,9.332547229E0
1.488790537E1,-7.966433716E-1,2.350561981E0,8.787626038E0,9.131382900E0
1.489788637E1,-6.304888916E-1,2.203268280E0,8.783135376E0,9.077189785E0
1.490786737E1,-4.843927002E-1,2.133064270E0,8.769064636E0,9.037759350E0
1.491784838E1,-3.529660034E-1,2.039658508E0,8.664731598E0,8.908555747E0
1.492782937E1,-3.188369751E-1,1.893113251E0,8.602012024E0,8.813634078E0
1.493781037E1,-3.405418396E-1,1.816472626E0,8.544830933E0,8.742406832E0
1.494779138E1,-3.640429688E-1,1.756447449E0,8.497229919E0,8.684500632E0
1.495777138E1,-3.573069763E-1,1.706301727E0,8.437204742E0,8.615425568E0
1.496775237E1,-2.896476746E-1,1.765129395E0,8.369844818E0,8.558848044E0
1.497773337E1,-1.698966980E-1,1.798360291E0,8.242160339E0,8.437782391E0
1.498771437E1,-8.756790161E-2,1.725761261E0,8.043224030E0,8.226747404E0
1.499769538E1,-1.107696533E-2,1.662442932E0,7.784412231E0,7.959956846E0
1.500767637E1,1.616638184E-2,1.607507172E0,7.771239624E0,7.935773809E0
1.501765737E1,-1.167572021E-2,1.621278534E0,7.851472778E0,8.017125744E0
1.502763838E1,1.437011719E-2,1.652862854E0,7.838150482E0,8.010540874E0
1.503761937E1,1.522334290E-1,1.656754761E0,7.789202271E0,7.964903224E0
1.504760037E1,3.417393494E-1,1.698966980E0,7.672744446E0,7.866020717E0
1.505758037E1,5.364843750E-1,1.795216827E0,7.597900085E0,7.825516255E0
1.506756137E1,7.182064819E-1,1.942959595E0,7.444319458E0,7.727147257E0
1.507754238E1,8.324189758E-1,2.085014191E0,7.336992645E0,7.672787408E0
1.508752337E1,8.196954346E-1,2.199076996E0,7.439379730E0,7.800782718E0
1.509750437E1,7.685018921E-1,2.323767700E0,7.535330200E0,7.922858872E0
1.510748538E1,6.740483093E-1,2.440075836E0,7.752378845E0,8.155224642E0
1.511746637E1,5.628295898E-1,2.572700043E0,8.005502472E0,8.427551986E0
1.512744737E1,4.104464722E-1,2.708018646E0,8.263416138E0,8.705508461E0
1.513742837E1,3.004252625E-1,2.767145691E0,8.675060120E0,9.110654131E0
1.514740938E1,3.168910217E-1,2.797083435E0,8.926237793E0,9.359584221E0
1.515738938E1,3.411405945E-1,2.799927521E0,9.291478271E0,9.710177109E0
1.516737037E1,3.170407104E-1,2.760260010E0,9.665849762E0,1.005724623E1
1.517735137E1,3.195854187E-1,2.736758881E0,9.927805023E0,1.030307219E1
1.518733238E1,3.101550293E-1,2.720293121E0,1.019170624E1,1.055305960E1
1.519731337E1,2.731819153E-1,2.745440826E0,1.049557434E1,1.085214976E1
1.520729437E1,2.362088013E-1,2.808310089E0,1.090437424E1,1.126267187E1
1.521727537E1,2.448907471E-1,2.824775848E0,1.131931137E1,1.166902481E1
1.522725638E1,3.643423462E-1,2.851121063E0,1.158276352E1,1.193407086E1
1.523723737E1,4.810995483E-1,2.939437408E0,1.175056458E1,1.212219109E1
1.524721737E1,4.995112610E-1,2.907104645E0,1.204006256E1,1.239612340E1
1.525719837E1,4.248165894E-1,2.839295654E0,1.243359421E1,1.276073406E1
1.526717937E1,2.722837830E-1,2.809058533E0,1.254496262E1,1.285850051E1
1.527716038E1,6.511459351E-2,2.796185303E0,1.241203903E1,1.272327022E1
1.528714137E1,-8.083190918E-2,2.636168060E0,1.232282455E1,1.260190148E1
1.529712237E1,-1.537303162E-1,2.340682526E0,1.223510696E1,1.245794004E1
1.530710338E1,-1.757345581E-1,2.117197266E0,1.197928894E1,1.216621430E1
1.531708437E1,-1.974394226E-1,1.990560608E0,1.167572021E1,1.184583287E1
1.532706537E1,-2.004331970E-1,1.878294067E0,1.140119110E1,1.155661372E1
1.533704638E1,-2.216889954E-1,1.800006866E0,1.116064133E1,1.130703699E1
1.534702637E1,-2.326162720E-1,1.758243713E0,1.100586319E1,1.114784983E1
1.535700738E1,-2.245330811E-1,1.791923676E0,1.088970474E1,1.103843625E1
1.536698837E1,-5.912704468E-2,1.873653717E0,1.073941727E1,1.090179607E1
1.537696937E1,2.517764282E-1,1.910177765E0,1.047446823E1,1.065019508E1
1.538695038E1,5.394781494E-1,1.890119476E0,1.013512390E1,1.032396846E1
1.539693137E1,7.393125916E-1,1.864672394E0,9.919422455E0,1.012020395E1
1.540691237E1,8.910969543E-1,1.835333405E0,9.695488129E0,9.907824814E0
1.541689338E1,1.041534119E0,1.764979706E0,9.396559753E0,9.617446744E0
1.542687437E1,1.154100037E0,1.694925385E0,9.122629395E0,9.350245239E0
1.543685438E1,1.191073151E0,1.645677795E0,8.916807404E0,9.145291954E0
1.544683537E1,1.249152374E0,1.563348999E0,8.703351288E0,8.930440380E0
1.545681637E1,1.214424591E0,1.497485962E0,8.554261322E0,8.768847020E0
1.546679738E1,1.089584198E0,1.482217712E0,8.347840576E0,8.548134613E0
1.547677837E1,9.605525208E-1,1.492695923E0,8.182135162E0,8.372463083E0
1.548675937E1,7.921527100E-1,1.538350983E0,7.954907684E0,8.140920460E0
1.549674037E1,6.236032104E-1,1.607507172E0,7.625742188E0,7.818241758E0
1.550672138E1,4.763095093E-1,1.704804840E0,7.328610077E0,7.539347183E0
1.551670237E1,3.421884155E-1,1.901196442E0,7.015311584E0,7.276416525E0
1.552668237E1,2.173480225E-1,2.102677460E0,6.860832825E0,7.179102988E0
1.553666337E1,4.086502075E-2,2.332898712E0,6.787934418E0,7.177753131E0
1.554664437E1,-1.351689148E-1,2.494861908E0,6.696025543E0,7.146982905E0
1.555662538E1,-2.797682190E-1,2.672692108E0,6.879693604E0,7.385914800E0
1.556660637E1,-4.007167053E-1,2.953358459E0,7.017257538E0,7.623962449E0
1.557658737E1,-3.620970154E-1,3.156036987E0,7.123835907E0,7.800046265E0
1.558656838E1,-2.730322266E-1,3.262615356E0,7.337142334E0,8.034479646E0
1.559654937E1,-2.474354553E-1,3.368594971E0,7.715106354E0,8.422085397E0
1.560653037E1,-1.586700439E-1,3.422632599E0,8.068970490E0,8.766291967E0
1.561651138E1,-1.157093811E-1,3.374432831E0,8.553662567E0,9.195940893E0
1.562649137E1,-2.083666992E-1,3.353925476E0,9.097631378E0,9.698408605E0
1.563647238E1,-2.749781799E-1,3.280278625E0,9.424850922E0,9.983168623E0
1.564645337E1,-1.639091492E-1,3.101550293E0,9.462572479E0,9.959254910E0
1.565643437E1,-5.074447632E-2,2.973416748E0,9.373807068E0,9.834228038E0
1.566641538E1,-6.526428223E-2,2.859503632E0,9.428593140E0,9.852887345E0
1.567639637E1,-1.675016785E-1,2.709665222E0,9.814041595E0,1.018262024E1
1.568637737E1,-2.960842896E-1,2.630928955E0,1.002704865E1,1.037068742E1
1.569635838E1,-4.453239441E-1,2.547252960E0,1.028451324E1,1.060462275E1
1.570633937E1,-6.872209167E-1,2.454595642E0,1.076142151E1,1.105918194E1
1.571631938E1,-8.671467590E-1,2.410138092E0,1.114402588E1,1.143459758E1
1.572630037E1,-9.732760620E-1,2.359094238E0,1.133353180E1,1.161729465E1
1.573628137E1,-9.879455566E-1,2.319576416E0,1.140598114E1,1.168130459E1
1.574626238E1,-1.015039215E0,2.332299957E0,1.142873383E1,1.170836814E1
1.575624337E1,-1.056053925E0,2.365231476E0,1.141226807E1,1.170253956E1
1.576622100E1,-1.043779449E0,2.349214783E0,1.148696274E1,1.177109165E1
1.577620200E1,-1.001716919E0,2.283501434E0,1.183259399E1,1.209248098E1
1.578618300E1,-9.367520142E-1,2.265089722E0,1.226220062E1,1.250478708E1
1.579616400E1,-7.559280396E-1,2.236499176E0,1.264330811E1,1.286182707E1
1.580614400E1,-6.230044556E-1,2.076332245E0,1.291948380E1,1.310008976E1
1.581612500E1,-5.593867493E-1,1.828896790E0,1.314566345E1,1.328405979E1
1.582610600E1,-5.300477600E-1,1.667532349E0,1.311258224E1,1.322881052E1
1.583608700E1,-4.959187317E-1,1.569785614E0,1.262324982E1,1.273014525E1
1.584606800E1,-3.903881836E-1,1.488055573E0,1.189276886E1,1.199185822E1
1.585604900E1,-3.692820740E-1,1.472787323E0,1.131137787E1,1.141283230E1
1.586603000E1,-4.209246826E-1,1.478625183E0,1.092712692E1,1.103474571E1
1.587601100E1,-6.066883850E-1,1.572180634E0,1.067100952E1,1.080325261E1
1.588599200E1,-8.255332947E-1,1.755998383E0,1.040201889E1,1.058144756E1
1.589597200E1,-9.571096802E-1,1.892963562E0,1.010653336E1,1.032673164E1
1.590595300E1,-1.035396881E0,1.963017883E0,9.807006226E0,1.005499165E1
1.591593400E1,-1.008452911E0,2.046244812E0,9.460925903E0,9.732071416E0
1.592591500E1,-9.217831421E-1,2.104473724E0,9.076525269E0,9.362788301E0
1.593589600E1,-8.460406494E-1,2.071991272E0,8.801098022E0,9.081203610E0
1.594587700E1,-7.662565613E-1,1.992506561E0,8.561596069E0,8.823727034E0
1.595585800E1,-6.956034851E-1,1.936522980E0,8.401878204E0,8.650175884E0
1.596583900E1,-6.228547668E-1,1.922152863E0,8.220605164E0,8.465280205E0
1.597582000E1,-5.492079163E-1,1.907483368E0,7.911497955E0,8.156710246E0
1.598580000E1,-5.499563599E-1,1.886676636E0,7.626939697E0,7.876052937E0
1.599578100E1,-5.872288513E-1,1.922003174E0,7.398814087E0,7.666901840E0
1.600576200E1,-6.953041077E-1,1.969604187E0,7.130721588E0,7.430341770E0
1.601574300E1,-7.577243042E-1,1.950144653E0,6.903344421E0,7.213416284E0
1.602572400E1,-7.979905701E-1,1.955084381E0,6.809190216E0,7.129110413E0
1.603570500E1,-8.547225952E-1,2.011816406E0,6.876999207E0,7.216028967E0
1.604568600E1,-9.087602234E-1,2.080972595E0,6.881489868E0,7.246460853E0
1.605566700E1,-9.319619751E-1,2.139351196E0,6.815926208E0,7.204320006E0
1.606564800E1,-9.072633362E-1,2.150577850E0,6.842870178E0,7.230005818E0
1.607562900E1,-8.729846191E-1,2.167642365E0,6.984924774E0,7.365456514E0
1.608560900E1,-7.795788574E-1,2.223476257E0,7.113507385E0,7.493569055E0
1.609559000E1,-6.879693604E-1,2.236499176E0,7.321275330E0,7.686111036E0
1.610557100E1,-5.834866333E-1,2.241139526E0,7.539371796E0,7.887033035E0
1.611555200E1,-4.246669006E-1,2.232158203E0,7.743098145E0,8.069599810E0
1.612553300E1,-2.615061951E-1,2.220781860E0,8.057145081E0,8.361689088E0
1.613551400E1,-2.061213684E-1,2.248923340E0,8.391549683E0,8.690123606E0
1.614549500E1,-1.341210938E-1,2.238445129E0,8.693471832E0,8.978033057E0
1.615547600E1,-2.709365845E-2,2.222877502E0,8.974736938E0,9.245962447E0
1.616545600E1,2.469863892E-2,2.230212250E0,9.201515350E0,9.467963955E0
1.617543700E1,1.152603149E-2,2.276915131E0,9.423503723E0,9.694683996E0
1.618541800E1,-5.209167480E-2,2.343376923E0,9.657467194E0,9.937846927E0
1.619539900E1,-1.746867371E-1,2.349963226E0,1.001327728E1,1.028681508E1
1.620538000E1,-2.474354553E-1,2.323917389E0,1.037297928E1,1.063299184E1
1.621536100E1,-2.818638611E-1,2.253713379E0,1.074750046E1,1.098487311E1
1.622534200E1,-2.986289978E-1,2.196532288E0,1.097457825E1,1.119621816E1
1.623532300E1,-3.830534363E-1,2.229463806E0,1.119566849E1,1.142191891E1
1.624530400E1,-4.026626587E-1,2.278561707E0,1.139026382E1,1.162291231E1
1.625528400E1,-3.414399719E-1,2.296674042E0,1.155073013E1,1.178179356E1
1.626526500E1,-2.610571289E-1,2.341430969E0,1.179502213E1,1.202800884E1
1.627524600E1,-2.112107849E-1,2.323917389E0,1.218915253E1,1.241050528E1
1.628522700E1,-1.695973206E-1,2.238744507E0,1.249586472E1,1.269595901E1
1.629520800E1,-7.304809570E-2,2.123035126E0,1.264749939E1,1.282465808E1
1.630518900E1,1.661544800E-2,2.047442322E0,1.277503418E1,1.293807538E1
1.631517000E1,5.927673340E-2,1.955533447E0,1.281545013E1,1.296392637E1
1.632515100E1,8.427474976E-2,1.770817566E0,1.276006531E1,1.288263031E1
1.633513200E1,5.104385376E-2,1.540746002E0,1.260917908E1,1.270306659E1
1.634511200E1,-3.008743286E-2,1.390308838E0,1.226773911E1,1.234630660E1
1.635509300E1,-7.888595581E-2,1.374890900E0,1.187495590E1,1.195454414E1
1.636507400E1,-3.353027344E-2,1.349144440E0,1.157183624E1,1.165026648E1
1.637505500E1,3.098556519E-2,1.319506073E0,1.135044662E1,1.142692850E1
1.638503600E1,8.337661743E-2,1.319805450E0,1.102232895E1,1.110137710E1
1.639501700E1,1.092727661E-1,1.349593506E0,1.067924240E1,1.076473694E1
1.640499800E1,1.291813660E-1,1.420995026E0,1.019544846E1,1.029480859E1
1.641497900E1,2.167492676E-1,1.500030670E0,9.580676880E0,9.699816582E0
1.642496000E1,3.347039795E-1,1.539548492E0,9.093290405E0,9.228768429E0
1.643494000E1,4.328997803E-1,1.578617249E0,8.728349304E0,8.880513285E0
1.644492100E1,5.325924683E-1,1.610201569E0,8.487799530E0,8.655584596E0
1.645490200E1,6.095324707E-1,1.653311920E0,8.337062988E0,8.521243419E0
1.646488300E1,6.658154297E-1,1.719025269E0,8.123606873E0,8.330146858E0
1.647486400E1,7.065307617E-1,1.715582428E0,8.029003601E0,8.240589033E0
1.648484500E1,6.134243774E-1,1.727108459E0,7.994724884E0,8.202122839E0
1.649482600E1,5.046006775E-1,1.800006866E0,7.921078033E0,8.138680715E0
1.650480700E1,4.314028931E-1,1.871109009E0,7.789202271E0,8.022395489E0
1.651478800E1,3.508703613E-1,1.929936676E0,7.597151642E0,7.846303502E0
1.652476800E1,2.495310974E-1,2.014959869E0,7.461383972E0,7.732695508E0
1.653474900E1,1.432521057E-1,2.089804230E0,7.327113190E0,7.620655522E0
1.654473000E1,5.104385376E-2,2.134561157E0,7.258256378E0,7.565794239E0
1.655471100E1,-6.062393188E-2,2.158810730E0,7.298522644E0,7.611344941E0
1.656469200E1,-1.552272034E-1,2.232756958E0,7.298372955E0,7.633842212E0
1.657467300E1,-2.142045593E-1,2.287992096E0,7.351213074E0,7.702020844E0
1.658465400E1,-1.848655701E-1,2.379451904E0,7.407496033E0,7.782478019E0
1.659463500E1,-1.281335449E-1,2.438429260E0,7.425009613E0,7.816209005E0
1.660461600E1,-9.280700684E-2,2.488574982E0,7.590415649E0,7.988493494E0
1.661459600E1,-8.472381592E-2,2.571951599E0,7.803871765E0,8.217209239E0
1.662457700E1,-1.149609375E-1,2.596799927E0,7.973020020E0,8.386038046E0
1.663455800E1,-1.631607056E-1,2.634371796E0,8.208480377E0,8.622394463E0
1.664453900E1,-1.839674377E-1,2.716251526E0,8.462951202E0,8.890073646E0
1.665452000E1,-1.818717957E-1,2.756817169E0,8.686885529E0,9.115651290E0
1.666450100E1,-1.462458801E-1,2.784060516E0,8.868907013E0,9.296767848E0
1.667448200E1,-1.935475159E-1,2.830164642E0,9.000633087E0,9.437091104E0
1.668446300E1,-2.763253784E-1,2.833158417E0,9.182504883E0,9.613612133E0
1.669444400E1,-3.980223083E-1,2.822829895E0,9.402996368E0,9.825636421E0
1.670442400E1,-4.486170959E-1,2.822081451E0,9.445957031E0,9.868713455E0
